timestamp(unix),attitude_roll(radians),attitude_pitch(radians),attitude_yaw(radians),rotation_rate_x(radians/s),rotation_rate_y(radians/s),rotation_rate_z(radians/s),gravity_x(G),gravity_y(G),gravity_z(G),user_acc_x(G),user_acc_y(G),user_acc_z(G),magnetic_field_x(microteslas),magnetic_field_y(microteslas),magnetic_field_z(microteslas),latitude(degree),longitude(degree),altitude(meter),speed(m/s),course(degree),timestamp(unix)
1478537195.06,-0.017232,0.343291,1.090890,-0.035635,-0.349347,0.042313,-0.016225,-0.336588,-0.941512,0.001623,-0.036322,-0.040894,4.901364,-0.164050,-19.834810,,,,,,
1478537195.07,-0.020723,0.343455,1.091082,0.032271,-0.320198,0.007234,-0.019511,-0.336742,-0.941395,0.003321,-0.013524,-0.039715,4.743201,-0.139845,-19.873409,,,,,,
1478537195.08,-0.023873,0.343948,1.090935,0.045940,-0.298862,-0.019911,-0.022473,-0.337207,-0.941162,0.006848,-0.005277,-0.042205,4.743201,-0.139845,-19.873409,,,,,,
1478537195.09,-0.026658,0.344171,1.090586,0.008999,-0.266798,-0.035703,-0.025091,-0.337417,-0.941021,-0.004099,-0.005173,-0.024922,4.611396,-0.153067,-19.904308,,,,,,
1478537195.10,-0.029327,0.344037,1.090134,-0.040837,-0.206314,-0.058291,-0.027605,-0.337290,-0.940996,-0.006102,-0.002829,0.000475,4.553672,-0.155822,-19.917574,,,,,,
1478537195.11,-0.030421,0.343486,1.089448,-0.055677,-0.101302,-0.056599,-0.028639,-0.336771,-0.941151,-0.005937,-0.011541,-0.000790,4.553672,-0.155822,-19.917574,,,,,,
1478537195.12,-0.030644,0.343024,1.088860,-0.042475,-0.023386,-0.047912,-0.028854,-0.336337,-0.941300,-0.000916,-0.021787,-0.015686,4.471196,-0.136811,-19.936388,,,,,,
1478537195.13,-0.030664,0.342634,1.088496,-0.041196,-0.022318,-0.027062,-0.028877,-0.335969,-0.941430,-0.002159,-0.026076,-0.026923,4.471196,-0.136811,-19.936388,,,,,,
1478537195.15,-0.030811,0.341944,1.088208,-0.075441,-0.006473,-0.024145,-0.029022,-0.335319,-0.941658,0.026932,-0.033013,-0.026940,4.460057,-0.115402,-19.939020,,,,,,
1478537195.16,-0.030341,0.340785,1.087840,-0.121303,0.035371,-0.032872,-0.028592,-0.334227,-0.942059,0.027021,-0.025606,-0.041248,4.460057,-0.115402,-19.939020,,,,,,
1478537195.17,-0.028562,0.338883,1.086532,-0.124295,-0.058330,-0.066905,-0.026934,-0.332433,-0.942742,0.030642,-0.014536,-0.070167,4.462168,-0.075672,-19.938738,,,,,,
1478537195.18,-0.029247,0.337729,1.085636,-0.106272,-0.097678,-0.080698,-0.027591,-0.331345,-0.943106,0.043689,0.003846,-0.065820,4.462168,-0.075672,-19.938738,,,,,,
1478537195.19,-0.029908,0.337054,1.084544,-0.051984,-0.097181,-0.100773,-0.028221,-0.330708,-0.943311,0.042854,0.008915,-0.061495,4.469453,-0.004669,-19.937248,,,,,,
1478537195.20,-0.030358,0.337047,1.083242,0.008394,-0.071901,-0.122404,-0.028646,-0.330702,-0.943300,0.031774,0.007078,-0.054808,4.469453,-0.004669,-19.937248,,,,,,
1478537195.21,-0.028954,0.336665,1.081564,0.049271,0.017359,-0.118418,-0.027325,-0.330341,-0.943466,0.016247,0.001652,-0.044922,4.431466,0.020224,-19.945715,,,,,,
1478537195.22,-0.027960,0.337319,1.080578,0.061426,0.075240,-0.081200,-0.026381,-0.330958,-0.943277,0.000609,0.002497,-0.025962,4.431466,0.020224,-19.945715,,,,,,
1478537195.23,-0.026731,0.337988,1.079860,0.062549,0.093622,-0.060644,-0.025216,-0.331590,-0.943087,-0.016014,-0.003234,-0.013777,4.461658,0.027488,-19.938976,,,,,,
1478537195.24,-0.025876,0.338539,1.079707,0.047672,0.070751,0.000850,-0.024405,-0.332109,-0.942925,0.012244,-0.013823,-0.017478,4.481401,0.017624,-19.934559,,,,,,
1478537195.25,-0.023966,0.339585,1.079651,0.025246,0.044211,0.053708,-0.022595,-0.333096,-0.942622,0.026822,-0.022067,-0.023961,4.481401,0.017624,-19.934559,,,,,,
1478537195.26,-0.024021,0.339662,1.080500,0.007877,0.012959,0.080967,-0.022646,-0.333168,-0.942595,0.024950,-0.021156,-0.028993,4.535122,-0.013026,-19.922409,,,,,,
1478537195.27,-0.024410,0.339717,1.081489,0.010614,-0.009350,0.088742,-0.023013,-0.333220,-0.942568,0.022158,-0.011247,-0.030882,4.535122,-0.013026,-19.922409,,,,,,
1478537195.28,-0.025022,0.340149,1.082356,0.057615,-0.041064,0.070332,-0.023586,-0.333628,-0.942410,0.019054,-0.017004,-0.046741,4.538442,-0.024328,-19.921642,,,,,,
1478537195.29,-0.026014,0.341308,1.082941,0.127464,-0.086166,0.042667,-0.024511,-0.334720,-0.941999,0.014928,-0.016339,-0.056170,4.538442,-0.024328,-19.921642,,,,,,
1478537195.30,-0.026712,0.342936,1.083121,0.140147,-0.094568,0.022141,-0.025153,-0.336253,-0.941436,0.008598,-0.002354,-0.003846,4.516086,-0.062724,-19.926640,,,,,,
1478537195.31,-0.027515,0.343994,1.083435,0.086727,-0.052904,0.029252,-0.025900,-0.337250,-0.941059,0.008551,0.001770,0.023197,4.516086,-0.062724,-19.926640,,,,,,
1478537195.32,-0.027731,0.344615,1.083958,0.057128,0.011008,0.054727,-0.026098,-0.337835,-0.940844,-0.006770,-0.025981,0.015657,4.489432,-0.118241,-19.932411,,,,,,
1478537195.33,-0.027381,0.345197,1.084797,0.059087,0.076406,0.073275,-0.025762,-0.338382,-0.940656,-0.020869,-0.028501,0.018247,4.489432,-0.118241,-19.932411,,,,,,
1478537195.35,-0.027839,0.346059,1.085793,0.075013,0.125119,0.026081,-0.026185,-0.339193,-0.940352,-0.028105,-0.000498,0.005187,4.501119,-0.148519,-19.929573,,,,,,
1478537195.36,-0.026671,0.347058,1.085668,0.100485,0.094805,-0.027003,-0.025078,-0.340133,-0.940043,-0.023643,0.005035,-0.018407,4.501119,-0.148519,-19.929573,,,,,,
1478537195.37,-0.026034,0.348266,1.085143,0.116285,0.025793,-0.055103,-0.024468,-0.341268,-0.939647,-0.003837,-0.011454,-0.041783,4.521015,-0.189514,-19.924719,,,,,,
1478537195.38,-0.025873,0.349409,1.084440,0.101456,-0.012523,-0.068161,-0.024307,-0.342343,-0.939261,0.005279,-0.004505,-0.036173,4.521015,-0.189514,-19.924719,,,,,,
1478537195.39,-0.026442,0.350204,1.083718,0.076543,-0.053364,-0.082548,-0.024834,-0.343089,-0.938974,-0.008232,-0.007191,-0.027441,4.528833,-0.230230,-19.922516,,,,,,
1478537195.40,-0.026867,0.350908,1.082753,0.061611,-0.079363,-0.089683,-0.025226,-0.343751,-0.938722,-0.010357,-0.002578,-0.020262,4.512733,-0.242546,-19.926023,,,,,,
1478537195.41,-0.027383,0.351537,1.081698,0.057844,-0.083023,-0.098261,-0.025705,-0.344341,-0.938493,-0.012777,-0.000492,-0.019820,4.512733,-0.242546,-19.926023,,,,,,
1478537195.42,-0.027882,0.352568,1.080511,0.112208,-0.090009,-0.110850,-0.026164,-0.345309,-0.938124,-0.007756,0.002673,-0.033235,4.480619,-0.259402,-19.933056,,,,,,
1478537195.43,-0.028518,0.354174,1.079284,0.153978,-0.099636,-0.112537,-0.026744,-0.346815,-0.937552,-0.011677,-0.002031,-0.043527,4.480619,-0.259402,-19.933056,,,,,,
1478537195.44,-0.029052,0.355714,1.078230,0.134924,-0.083920,-0.083642,-0.027229,-0.348260,-0.937003,-0.005333,0.012536,-0.023813,4.442010,-0.300249,-19.941120,,,,,,
1478537195.45,-0.028815,0.358664,1.078065,0.082962,-0.180831,0.080358,-0.026978,-0.351024,-0.935978,0.039490,-0.057103,-0.040295,4.442010,-0.300249,-19.941120,,,,,,
1478537195.46,-0.031581,0.359248,1.079060,0.049394,-0.240397,0.080878,-0.029560,-0.351570,-0.935695,0.005299,0.028572,-0.015004,4.428040,-0.383482,-19.942801,,,,,,
1478537195.47,-0.034078,0.359661,1.079428,0.040233,-0.213927,0.015297,-0.031891,-0.351957,-0.935473,-0.016494,0.048643,-0.016798,4.428040,-0.383482,-19.942801,,,,,,
1478537195.48,-0.035848,0.360338,1.079064,0.071305,-0.167377,-0.056174,-0.033539,-0.352591,-0.935176,-0.029358,0.056860,-0.041188,4.332098,-0.409609,-19.963345,,,,,,
1478537195.49,-0.039331,0.358497,1.078727,0.132606,-0.114454,-0.130991,-0.036821,-0.350867,-0.935701,-0.051543,0.048072,-0.056959,4.332098,-0.409609,-19.963345,,,,,,
1478537195.50,-0.039720,0.360417,1.077200,0.191709,-0.086770,-0.145323,-0.037158,-0.352665,-0.935012,-0.049054,0.010853,-0.075929,4.222490,-0.383263,-19.987337,,,,,,
1478537195.51,-0.040394,0.362804,1.075562,0.226194,-0.130947,-0.161250,-0.037755,-0.354897,-0.934143,-0.054119,0.013268,-0.062592,4.222490,-0.383263,-19.987337,,,,,,
1478537195.52,-0.041044,0.365134,1.073542,0.204639,-0.127052,-0.198420,-0.038327,-0.357075,-0.933289,-0.056171,0.040119,-0.013275,4.180212,-0.453794,-19.994745,,,,,,
1478537195.53,-0.044269,0.365024,1.072171,0.121283,-0.132387,-0.214246,-0.041339,-0.356972,-0.933200,-0.049329,0.049294,0.026980,4.180212,-0.453794,-19.994745,,,,,,
1478537195.54,-0.044502,0.365673,1.069772,0.038810,-0.092058,-0.216117,-0.041546,-0.357578,-0.932959,-0.040959,0.055423,0.045935,4.080090,-0.482023,-20.014757,,,,,,
1478537195.56,-0.044580,0.366321,1.067362,0.067920,-0.098081,-0.214369,-0.041609,-0.358183,-0.932724,-0.022356,0.020537,-0.011078,4.080090,-0.482023,-20.014757,,,,,,
1478537195.57,-0.045586,0.367777,1.065233,0.148457,-0.200461,-0.188175,-0.042523,-0.359542,-0.932160,-0.016696,-0.003892,-0.053253,4.041625,-0.485506,-20.022472,,,,,,
1478537195.58,-0.049279,0.369660,1.063475,0.217849,-0.335822,-0.219226,-0.045932,-0.361298,-0.931318,-0.025190,0.001145,-0.019991,4.007196,-0.504581,-20.028923,,,,,,
1478537195.59,-0.052059,0.372310,1.060598,0.239508,-0.364838,-0.282200,-0.048471,-0.363768,-0.930228,-0.022650,0.003615,-0.021082,4.007196,-0.504581,-20.028923,,,,,,
1478537195.60,-0.054385,0.374532,1.057452,0.175852,-0.310751,-0.288937,-0.050590,-0.365837,-0.929303,0.057594,-0.048225,-0.019977,3.846296,-0.573295,-20.058596,,,,,,
1478537195.61,-0.055933,0.375709,1.054430,0.066551,-0.233694,-0.266061,-0.052004,-0.366932,-0.928793,0.075533,-0.049907,-0.010767,3.846296,-0.573295,-20.058596,,,,,,
1478537195.62,-0.056626,0.375273,1.051878,-0.094805,-0.121450,-0.200377,-0.052657,-0.366527,-0.928916,0.094527,-0.043584,0.021537,3.726840,-0.612783,-20.079967,,,,,,
1478537195.63,-0.053787,0.374573,1.049538,-0.224992,-0.094807,-0.077615,-0.050033,-0.365875,-0.929318,0.065994,-0.021241,0.014477,3.726840,-0.612783,-20.079967,,,,,,
1478537195.64,-0.052927,0.371363,1.047760,-0.330223,0.077137,-0.158077,-0.049296,-0.362886,-0.930529,0.036631,-0.079802,0.019060,3.736586,-0.568263,-20.079464,,,,,,
1478537195.65,-0.050004,0.367704,1.045655,-0.370789,0.231575,-0.169855,-0.046642,-0.359474,-0.931989,0.021816,0.015617,0.001432,3.736586,-0.568263,-20.079464,,,,,,
1478537195.66,-0.046748,0.363052,1.043273,-0.476839,0.221283,-0.198194,-0.043685,-0.355129,-0.933796,-0.020661,0.008296,-0.003689,3.785856,-0.414525,-20.073997,,,,,,
1478537195.67,-0.043641,0.358047,1.040477,-0.490463,0.186862,-0.232151,-0.040860,-0.350445,-0.935691,-0.002185,-0.028461,-0.045159,3.785856,-0.414525,-20.073997,,,,,,
1478537195.68,-0.041232,0.353904,1.037576,-0.364674,0.103646,-0.246101,-0.038666,-0.346562,-0.937230,0.031662,-0.038356,-0.122371,3.878009,-0.199600,-20.059690,,,,,,
1478537195.69,-0.040823,0.352089,1.034469,-0.117600,-0.124594,-0.280380,-0.038308,-0.344859,-0.937872,0.030969,-0.022145,-0.193826,3.878009,-0.199600,-20.059690,,,,,,
1478537195.70,-0.042117,0.352794,1.031090,0.098340,-0.261544,-0.310518,-0.039511,-0.345521,-0.937579,0.023764,-0.019637,-0.200895,3.893320,-0.054540,-20.057642,,,,,,
1478537195.71,-0.043536,0.354398,1.027650,0.143489,-0.225409,-0.310477,-0.040818,-0.347026,-0.936967,0.017334,-0.028921,-0.162642,3.893320,-0.054540,-20.057642,,,,,,
1478537195.72,-0.043343,0.355944,1.024478,0.129146,-0.031602,-0.279615,-0.040613,-0.348476,-0.936437,0.023493,-0.002690,-0.091410,3.791943,-0.070480,-20.077003,,,,,,
1478537195.73,-0.041140,0.357195,1.021838,0.099632,0.166866,-0.225748,-0.038532,-0.349647,-0.936089,0.039585,0.011848,-0.004784,3.773921,-0.087422,-20.080334,,,,,,
1478537195.74,-0.037626,0.358109,1.020007,0.070732,0.300804,-0.145027,-0.035231,-0.350504,-0.935898,0.036284,0.012705,-0.004974,3.773921,-0.087422,-20.080334,,,,,,
1478537195.76,-0.033673,0.358641,1.019102,0.042555,0.355547,-0.058053,-0.031525,-0.351002,-0.935844,0.049988,-0.016735,-0.026619,3.857717,-0.111118,-20.064287,,,,,,
1478537195.77,-0.027908,0.359062,1.018463,0.028576,0.374665,0.012552,-0.026125,-0.351396,-0.935862,0.035402,-0.020247,-0.049459,3.857717,-0.111118,-20.064287,,,,,,
1478537195.78,-0.024550,0.359123,1.018920,0.001362,0.316051,0.051168,-0.022981,-0.351454,-0.935923,0.034593,-0.023409,-0.079259,4.041846,-0.123441,-20.027935,,,,,,
1478537195.79,-0.021916,0.358836,1.019814,-0.033568,0.272253,0.086971,-0.020519,-0.351185,-0.936081,0.030834,-0.019573,-0.069488,4.041846,-0.123441,-20.027935,,,,,,
1478537195.80,-0.019425,0.358127,1.020770,-0.075203,0.267039,0.088910,-0.018191,-0.350520,-0.936378,0.039401,-0.010411,-0.071144,4.171104,-0.124767,-20.001408,,,,,,
1478537195.81,-0.014620,0.355828,1.020892,-0.063647,0.244865,0.089445,-0.013704,-0.348367,-0.937258,0.051790,0.011377,-0.070463,4.171104,-0.124767,-20.001408,,,,,,
1478537195.82,-0.012458,0.355607,1.021750,0.000869,0.231817,0.069747,-0.011678,-0.348160,-0.937362,0.054708,0.010407,-0.055359,4.324357,-0.069554,-19.969103,,,,,,
1478537195.83,-0.010254,0.356411,1.021979,0.099515,0.209492,0.001640,-0.009609,-0.348913,-0.937106,0.057079,0.010596,-0.047178,4.324357,-0.069554,-19.969103,,,,,,
1478537195.84,-0.008257,0.357860,1.021816,0.138960,0.175259,-0.016836,-0.007734,-0.350270,-0.936617,0.064237,0.018147,-0.026823,4.418983,-0.085864,-19.948311,,,,,,
1478537195.85,-0.004058,0.358945,1.021019,0.074432,0.190747,0.008947,-0.003800,-0.351287,-0.936260,0.044342,0.003600,0.012081,4.418983,-0.085864,-19.948311,,,,,,
1478537195.86,-0.001275,0.358970,1.021121,-0.023745,0.291578,0.007054,-0.001193,-0.351310,-0.936258,0.008426,-0.013390,0.057413,4.535897,-0.132146,-19.921799,,,,,,
1478537195.87,0.002133,0.358113,1.021028,-0.097312,0.322231,-0.014149,0.001998,-0.350508,-0.936558,0.001954,-0.020418,0.027332,4.535897,-0.132146,-19.921799,,,,,,
1478537195.88,0.005127,0.356987,1.020832,-0.101779,0.256693,-0.018013,0.004804,-0.349453,-0.936942,0.022143,-0.026478,-0.025446,4.659209,-0.115616,-19.893423,,,,,,
1478537195.89,0.007343,0.356291,1.020219,-0.059405,0.173296,-0.069957,0.006882,-0.348801,-0.937172,0.031098,-0.012695,-0.055443,4.717408,-0.092363,-19.879826,,,,,,
1478537195.90,0.008892,0.355724,1.019218,-0.052390,0.093130,-0.090579,0.008335,-0.348270,-0.937357,0.023999,-0.008801,-0.065389,4.717408,-0.092363,-19.879826,,,,,,
1478537195.91,0.010037,0.354771,1.018169,-0.034235,0.041250,-0.084536,0.009412,-0.347376,-0.937679,0.005435,-0.009589,-0.058720,4.781146,-0.060251,-19.864716,,,,,,
1478537195.92,0.010396,0.354705,1.017302,0.004142,-0.010554,-0.073296,0.009749,-0.347314,-0.937698,-0.011366,0.000878,-0.046860,4.781146,-0.060251,-19.864716,,,,,,
1478537195.93,0.010405,0.354922,1.016566,0.023131,-0.014204,-0.066828,0.009756,-0.347517,-0.937623,-0.018744,0.000105,-0.008147,4.797876,-0.031694,-19.860748,,,,,,
1478537195.94,0.010572,0.354832,1.015818,-0.019766,-0.019436,-0.063680,0.009913,-0.347433,-0.937653,-0.004008,-0.005869,-0.026230,4.797876,-0.031694,-19.860748,,,,,,
1478537195.95,0.009919,0.354692,1.015345,-0.003901,-0.093792,-0.033987,0.009302,-0.347301,-0.937707,-0.001627,-0.018376,-0.073492,4.791171,-0.027841,-19.862371,,,,,,
1478537195.97,0.008527,0.355244,1.015046,0.072485,-0.158924,-0.028106,0.007994,-0.347819,-0.937528,-0.001952,-0.012029,-0.092975,4.774958,-0.023016,-19.866283,,,,,,
1478537195.98,0.006039,0.355708,1.014882,0.097683,-0.154896,-0.048658,0.005661,-0.348255,-0.937383,-0.017273,-0.003277,-0.041514,4.774958,-0.023016,-19.866283,,,,,,
1478537195.99,0.005234,0.356739,1.014039,0.100855,-0.091497,-0.085250,0.004904,-0.349221,-0.937028,0.009363,-0.000892,-0.096145,4.694642,-0.041279,-19.885386,,,,,,
1478537196.00,0.004576,0.358166,1.012554,0.152909,-0.129001,-0.146414,0.004286,-0.350557,-0.936532,0.027193,0.008012,-0.125877,4.694642,-0.041279,-19.885386,,,,,,
1478537196.01,0.003185,0.360270,1.010654,0.210497,-0.215001,-0.172339,0.002981,-0.352527,-0.935797,0.009577,0.022876,-0.048883,4.649509,-0.080255,-19.895868,,,,,,
1478537196.02,0.001637,0.362458,1.008786,0.204031,-0.196601,-0.159253,0.001530,-0.354574,-0.935027,-0.015156,0.022695,0.030318,4.649509,-0.080255,-19.895868,,,,,,
1478537196.03,-0.000540,0.365449,1.007869,0.114886,-0.108522,-0.110512,-0.000505,-0.357368,-0.933963,-0.023665,-0.000878,0.079456,4.564946,-0.149734,-19.915039,,,,,,
1478537196.04,-0.000688,0.365190,1.007216,-0.081679,-0.012658,-0.034022,-0.000643,-0.357127,-0.934056,0.008669,-0.030904,0.062397,4.564946,-0.149734,-19.915039,,,,,,
1478537196.05,-0.000945,0.362924,1.007740,-0.250746,-0.019571,0.077714,-0.000884,-0.355009,-0.934862,0.026381,-0.054262,0.008471,4.507762,-0.197514,-19.927645,,,,,,
1478537196.06,-0.002374,0.360094,1.009197,-0.259962,-0.109218,0.142870,-0.002222,-0.352362,-0.935861,0.017862,-0.033411,-0.042258,4.507762,-0.197514,-19.927645,,,,,,
1478537196.07,-0.004471,0.356895,1.010741,-0.154091,-0.222461,0.156120,-0.004190,-0.349367,-0.936977,0.013299,0.001589,-0.076848,4.487886,-0.104367,-19.932835,,,,,,
1478537196.08,-0.008016,0.356321,1.012338,-0.022048,-0.299415,0.137249,-0.007513,-0.348829,-0.937156,0.008352,0.009198,-0.076241,4.487886,-0.104367,-19.932835,,,,,,
1478537196.09,-0.011668,0.356689,1.013576,0.049933,-0.302368,0.099092,-0.010933,-0.349173,-0.936994,-0.002556,0.004294,-0.051745,4.397103,-0.042587,-19.953285,,,,,,
1478537196.10,-0.014694,0.357456,1.014125,0.083552,-0.258267,0.026472,-0.013765,-0.349892,-0.936689,-0.009551,0.001992,-0.050189,4.397103,-0.042587,-19.953285,,,,,,
1478537196.11,-0.016752,0.358732,1.013793,0.132052,-0.184342,-0.052569,-0.015685,-0.351087,-0.936211,-0.014375,0.022825,-0.029166,4.276144,-0.072831,-19.979469,,,,,,
1478537196.12,-0.017467,0.360260,1.012824,0.148680,-0.072606,-0.092235,-0.016345,-0.352518,-0.935662,-0.004132,0.017465,0.027352,4.276144,-0.072831,-19.979469,,,,,,
1478537196.13,-0.018362,0.363460,1.012253,0.169361,-0.118540,-0.056820,-0.017161,-0.355510,-0.934515,-0.001057,-0.004643,0.057714,4.211705,-0.123125,-19.992907,,,,,,
1478537196.14,-0.019026,0.364417,1.010983,0.060400,-0.092586,-0.132418,-0.017775,-0.356405,-0.934162,0.007659,-0.010203,0.036793,4.189867,-0.184413,-19.997023,,,,,,
1478537196.15,-0.018992,0.364358,1.009458,-0.027212,-0.042413,-0.132077,-0.017744,-0.356350,-0.934184,0.023329,-0.014622,-0.010671,4.189867,-0.184413,-19.997023,,,,,,
1478537196.17,-0.019351,0.363619,1.008252,-0.082379,-0.083825,-0.100287,-0.018085,-0.355659,-0.934441,0.013034,-0.013100,-0.027305,4.157870,-0.190433,-20.003643,,,,,,
1478537196.18,-0.019429,0.362437,1.006982,-0.071083,-0.076324,-0.101478,-0.018166,-0.354554,-0.934859,0.006524,-0.007491,-0.043000,4.157870,-0.190433,-20.003643,,,,,,
1478537196.19,-0.019815,0.361955,1.005882,-0.038231,-0.076193,-0.093647,-0.018530,-0.354104,-0.935023,0.006827,-0.009330,-0.076055,4.131878,-0.141678,-20.009432,,,,,,
1478537196.20,-0.020421,0.361944,1.004968,0.012494,-0.095818,-0.076640,-0.019097,-0.354093,-0.935015,0.023873,-0.016940,-0.093397,4.131878,-0.141678,-20.009432,,,,,,
1478537196.21,-0.021548,0.362580,1.004122,0.071052,-0.146151,-0.078624,-0.020146,-0.354688,-0.934768,0.023289,-0.011904,-0.075181,4.097999,-0.123352,-20.016521,,,,,,
1478537196.22,-0.021814,0.362649,1.002974,0.060767,-0.126448,-0.075428,-0.020394,-0.354753,-0.934738,0.016426,-0.006804,-0.061585,4.097999,-0.123352,-20.016521,,,,,,
1478537196.23,-0.022824,0.362859,1.002212,0.003881,-0.120672,-0.067762,-0.021336,-0.354949,-0.934642,0.012700,-0.011323,-0.055058,4.056201,-0.129023,-20.024998,,,,,,
1478537196.24,-0.023748,0.362643,1.001474,-0.027794,-0.109748,-0.065951,-0.022201,-0.354746,-0.934699,0.021103,-0.012090,-0.065362,4.056201,-0.129023,-20.024998,,,,,,
1478537196.25,-0.024601,0.362505,1.000791,0.001213,-0.102302,-0.048487,-0.023000,-0.354618,-0.934729,0.020787,-0.009686,-0.083292,4.006979,-0.122599,-20.034945,,,,,,
1478537196.26,-0.026642,0.363435,1.001362,0.103450,-0.218834,0.057978,-0.024899,-0.355487,-0.934349,0.019635,0.024662,-0.096321,4.006979,-0.122599,-20.034945,,,,,,
1478537196.27,-0.028311,0.364370,1.000906,0.086081,-0.132451,-0.078641,-0.026449,-0.356361,-0.933974,0.006490,-0.043770,-0.046296,3.948195,-0.137930,-20.046513,,,,,,
1478537196.28,-0.027478,0.365681,0.999844,0.081070,0.004709,-0.068766,-0.025657,-0.357586,-0.933528,0.012932,-0.020787,-0.035375,3.948195,-0.137930,-20.046513,,,,,,
1478537196.29,-0.026557,0.366121,0.999127,0.034915,0.081048,-0.062136,-0.024794,-0.357996,-0.933394,0.031050,-0.013677,-0.045275,3.920835,-0.176352,-20.051580,,,,,,
1478537196.30,-0.025224,0.366725,0.998566,0.066278,0.107082,-0.047405,-0.023544,-0.358561,-0.933210,0.033264,-0.003500,-0.054614,3.934270,-0.182133,-20.048897,,,,,,
1478537196.31,-0.024534,0.367789,0.998420,0.113742,0.032777,-0.001313,-0.022891,-0.359553,-0.932844,0.025775,-0.016210,-0.047366,3.934270,-0.182133,-20.048897,,,,,,
1478537196.32,-0.024132,0.370146,0.997923,0.127370,-0.080653,-0.031092,-0.022495,-0.361752,-0.932003,0.020466,-0.028659,-0.019291,3.969870,-0.212445,-20.041580,,,,,,
1478537196.33,-0.024335,0.371088,0.997134,0.072528,-0.028656,-0.076914,-0.022677,-0.362630,-0.931657,0.014422,-0.010005,-0.010939,3.969870,-0.212445,-20.041580,,,,,,
1478537196.34,-0.024060,0.371465,0.996464,0.020412,0.010418,-0.055023,-0.022416,-0.362981,-0.931527,0.008241,-0.003200,-0.015967,3.964859,-0.272876,-20.041840,,,,,,
1478537196.35,-0.023607,0.371555,0.995752,0.006402,0.021560,-0.066452,-0.021994,-0.363065,-0.931504,0.003043,-0.015643,-0.038314,3.964859,-0.272876,-20.041840,,,,,,
1478537196.36,-0.023339,0.371483,0.994997,0.043144,0.007034,-0.075675,-0.021745,-0.362997,-0.931536,-0.004805,-0.011438,-0.056669,3.969762,-0.276455,-20.040819,,,,,,
1478537196.38,-0.023140,0.372389,0.994107,0.095179,-0.021034,-0.083035,-0.021552,-0.363842,-0.931211,-0.005334,-0.002995,-0.049761,3.969762,-0.276455,-20.040819,,,,,,
1478537196.39,-0.023374,0.373774,0.993360,0.144791,-0.055611,-0.053527,-0.021758,-0.365131,-0.930702,-0.012162,-0.002148,-0.039116,3.967578,-0.286296,-20.041115,,,,,,
1478537196.40,-0.024785,0.375578,0.993320,0.164742,-0.160968,-0.010988,-0.023055,-0.366810,-0.930010,-0.017533,0.004719,-0.040113,3.967578,-0.286296,-20.041115,,,,,,
1478537196.41,-0.025774,0.377077,0.992601,0.138824,-0.097491,-0.077435,-0.023960,-0.368204,-0.929436,-0.019558,-0.010610,-0.008888,3.929103,-0.346653,-20.047741,,,,,,
1478537196.42,-0.026290,0.378706,0.992100,0.151275,-0.071798,-0.035990,-0.024425,-0.369718,-0.928823,-0.002950,0.024473,-0.014033,3.929103,-0.346653,-20.047741,,,,,,
1478537196.43,-0.027559,0.379797,0.992283,0.124016,-0.123148,0.020900,-0.025592,-0.370732,-0.928387,-0.002393,0.004063,-0.006992,3.890363,-0.404017,-20.054220,,,,,,
1478537196.44,-0.029970,0.380913,0.992694,0.097429,-0.256842,0.017868,-0.027818,-0.371768,-0.927909,-0.030379,-0.005246,0.056952,3.890363,-0.404017,-20.054220,,,,,,
1478537196.45,-0.033181,0.381429,0.991692,0.031197,-0.355006,-0.120021,-0.030791,-0.372248,-0.927623,-0.068971,0.054956,0.068415,3.820758,-0.450482,-20.066608,,,,,,
1478537196.46,-0.034888,0.382098,0.990754,0.070479,-0.081890,-0.070100,-0.032365,-0.372868,-0.927320,-0.097212,0.044743,-0.032962,3.749245,-0.456669,-20.079952,,,,,,
1478537196.47,-0.034036,0.383355,0.990103,0.097867,0.101393,-0.081383,-0.031559,-0.374034,-0.926878,-0.012890,-0.017659,-0.029009,3.749245,-0.456669,-20.079952,,,,,,
1478537196.48,-0.034443,0.385206,0.989396,0.189665,-0.131838,-0.074894,-0.031913,-0.375750,-0.926171,-0.009408,-0.020322,0.034905,3.720902,-0.488579,-20.084475,,,,,,
1478537196.49,-0.034762,0.386589,0.987626,0.095266,-0.044881,-0.188106,-0.032191,-0.377032,-0.925641,-0.060629,0.040560,0.063855,3.720902,-0.488579,-20.084475,,,,,,
1478537196.50,-0.032044,0.385906,0.985396,-0.143631,0.252919,-0.184317,-0.029682,-0.376399,-0.925982,-0.052608,0.119807,0.062182,3.688860,-0.543012,-20.088985,,,,,,
1478537196.51,-0.027075,0.383346,0.983663,-0.252431,0.418751,-0.129817,-0.025106,-0.374026,-0.927078,0.006720,0.118181,0.007859,3.688860,-0.543012,-20.088985,,,,,,
1478537196.52,-0.024642,0.378604,0.983620,-0.127079,0.262480,0.011994,-0.022894,-0.369624,-0.928899,-0.018594,0.060969,-0.027476,3.815127,-0.462237,-20.067413,,,,,,
1478537196.53,-0.022576,0.378388,0.983944,0.031558,0.181744,0.020553,-0.020977,-0.369423,-0.929024,-0.126881,0.039315,-0.085059,3.815127,-0.462237,-20.067413,,,,,,
1478537196.54,-0.023384,0.381144,0.983840,0.341721,-0.180783,-0.028946,-0.021704,-0.371983,-0.927986,-0.117197,0.082905,-0.106560,3.907317,-0.364440,-20.051683,,,,,,
1478537196.55,-0.027083,0.387899,0.983169,0.753249,-0.438744,-0.087332,-0.025068,-0.378245,-0.925366,-0.142077,0.098200,-0.144626,3.907317,-0.364440,-20.051683,,,,,,
1478537196.56,-0.034114,0.399497,0.982087,1.197434,-0.816455,-0.146904,-0.031422,-0.388955,-0.920721,-0.164318,0.107384,-0.199076,3.811523,-0.551117,-20.065853,,,,,,
1478537196.58,-0.046246,0.412058,0.979645,1.112686,-1.385693,-0.308995,-0.042360,-0.400496,-0.915319,-0.154387,0.112914,-0.205027,3.811523,-0.551117,-20.065853,,,,,,
1478537196.59,-0.056861,0.419570,0.974903,0.578365,-0.989275,-0.477934,-0.051901,-0.407368,-0.911788,-0.097925,0.140629,0.008773,3.402137,-1.018991,-20.121059,,,,,,
1478537196.60,-0.057672,0.424246,0.970278,0.360206,-0.039071,-0.394102,-0.052530,-0.411633,-0.909834,-0.134680,0.174695,0.026778,3.402137,-1.018991,-20.121059,,,,,,
1478537196.61,-0.054671,0.424298,0.967631,-0.014812,0.381714,-0.261894,-0.049798,-0.411681,-0.909966,-0.185416,0.161285,0.053597,3.105708,-1.225283,-20.157459,,,,,,
1478537196.62,-0.048045,0.422312,0.964982,-0.233589,0.555596,-0.214024,-0.043807,-0.409871,-0.911091,-0.222444,0.196766,-0.017467,3.147181,-1.216070,-20.151585,,,,,,
1478537196.63,-0.041815,0.420398,0.962712,-0.157176,0.491450,-0.178724,-0.038163,-0.408124,-0.912129,-0.184463,0.141278,-0.019619,3.147181,-1.216070,-20.151585,,,,,,
1478537196.64,-0.035421,0.421011,0.960690,0.136619,0.548926,-0.185264,-0.032321,-0.408684,-0.912104,-0.152448,0.121300,-0.014746,3.370460,-1.119274,-20.121063,,,,,,
1478537196.65,-0.032184,0.422611,0.959382,0.522290,0.490130,-0.271908,-0.029347,-0.410143,-0.911549,-0.164012,0.139284,-0.059780,3.370460,-1.119274,-20.121063,,,,,,
1478537196.66,-0.029970,0.432238,0.955908,1.051918,-0.119425,-0.347183,-0.027209,-0.418904,-0.907623,-0.240003,0.202763,-0.112839,3.540256,-1.150705,-20.090107,,,,,,
1478537196.67,-0.039024,0.448836,0.952113,1.744000,-1.367737,-0.377442,-0.035150,-0.433917,-0.900267,-0.299841,0.263736,-0.149553,3.540256,-1.150705,-20.090107,,,,,,
1478537196.68,-0.063610,0.472253,0.949869,2.355500,-2.767273,-0.277534,-0.056610,-0.454894,-0.888745,-0.257340,0.327422,-0.012012,3.351711,-1.646616,-20.087921,,,,,,
1478537196.69,-0.100655,0.499642,0.950070,2.640952,-3.729813,-0.171313,-0.088201,-0.479111,-0.873312,-0.220972,0.421601,0.158315,3.351711,-1.646616,-20.087921,,,,,,
1478537196.70,-0.145919,0.525685,0.951777,2.381552,-4.380601,-0.173884,-0.125770,-0.501805,-0.855788,-0.213647,0.491918,0.303435,2.104097,-2.649819,-20.149967,,,,,,
1478537196.71,-0.194555,0.544153,0.953841,1.493101,-4.459713,-0.079900,-0.165406,-0.517693,-0.839425,0.082933,0.380242,0.808007,2.104097,-2.649819,-20.149967,,,,,,
1478537196.72,-0.236007,0.549626,0.957650,0.287442,-3.506640,0.276618,-0.199385,-0.522368,-0.829082,0.548628,0.190993,0.784481,0.260212,-3.543178,-20.120838,,,,,,
1478537196.73,-0.272059,0.546584,0.961087,-0.312492,-3.225210,0.350285,-0.229565,-0.519772,-0.822884,-0.209018,0.577496,0.272530,0.260212,-3.543178,-20.120838,,,,,,
1478537196.74,-0.306306,0.539898,0.964063,-0.619446,-3.072054,0.446290,-0.258648,-0.514049,-0.817836,-0.106571,0.556560,0.264079,-1.242030,-3.616851,-20.071016,,,,,,
1478537196.75,-0.339015,0.530232,0.967919,-0.797952,-2.860882,0.646192,-0.286895,-0.505733,-0.813588,-0.056550,0.581158,0.252064,-1.242030,-3.616851,-20.071016,,,,,,
1478537196.76,-0.369402,0.520073,0.974294,-0.675889,-2.496157,0.889541,-0.313320,-0.496944,-0.809245,0.008586,0.631068,0.200572,-2.550194,-3.319679,-19.998655,,,,,,
1478537196.78,-0.399522,0.511648,0.984535,-0.333200,-2.361502,1.149771,-0.339165,-0.489615,-0.803271,0.117333,0.702414,0.260440,-3.121393,-3.142914,-19.946152,,,,,,
1478537196.79,-0.432846,0.505249,0.999127,0.021689,-2.596672,1.426231,-0.367046,-0.484025,-0.794353,0.221966,0.707673,0.365993,-3.121393,-3.142914,-19.946152,,,,,,
1478537196.80,-0.475704,0.499505,1.018224,0.250712,-3.434105,1.760099,-0.402010,-0.478991,-0.780356,0.304415,0.735751,0.524451,-4.217980,-2.945274,-19.773819,,,,,,
1478537196.81,-0.530757,0.491700,1.041566,0.299433,-4.437767,2.172662,-0.446219,-0.472125,-0.760254,0.344031,0.821292,0.634415,-4.217980,-2.945274,-19.773819,,,,,,
1478537196.82,-0.595788,0.480425,1.068363,0.293645,-5.140024,2.586710,-0.497637,-0.462157,-0.734009,0.335771,0.877989,0.651612,-5.851811,-2.850357,-19.367542,,,,,,
1478537196.83,-0.667471,0.463994,1.098437,0.225610,-5.648206,3.111870,-0.553556,-0.447523,-0.702352,0.308988,0.865751,0.566961,-5.851811,-2.850357,-19.367542,,,,,,
1478537196.84,-0.744043,0.441856,1.130327,0.141137,-6.027095,3.545079,-0.612223,-0.427618,-0.665076,0.264430,0.887395,0.499381,-8.106804,-2.556074,-18.579994,,,,,,
1478537196.85,-0.820830,0.412081,1.160812,-0.270597,-6.113726,3.989479,-0.670460,-0.400517,-0.624556,0.163349,0.811955,0.350081,-8.106804,-2.556074,-18.579994,,,,,,
1478537196.86,-0.893393,0.372134,1.186071,-1.004632,-5.899315,4.433956,-0.725869,-0.363604,-0.583871,0.066522,0.689242,0.257638,-10.561172,-1.839849,-17.393864,,,,,,
1478537196.87,-0.955654,0.322769,1.202523,-1.864757,-5.175803,4.690184,-0.774518,-0.317193,-0.547275,-0.067019,0.599786,0.152851,-10.561172,-1.839849,-17.393864,,,,,,
1478537196.88,-1.003780,0.265533,1.209589,-2.696454,-4.102201,4.953176,-0.813945,-0.262424,-0.518293,-0.201451,0.483386,0.048719,-12.667112,-0.309494,-16.028675,,,,,,
1478537196.89,-1.038128,0.202869,1.209168,-3.272107,-3.003702,5.086987,-0.843789,-0.201480,-0.497419,-0.193733,0.424014,-0.014345,-12.667112,-0.309494,-16.028675,,,,,,
1478537196.90,-1.061532,0.137784,1.203589,-3.597078,-2.121759,5.123825,-0.864829,-0.137348,-0.482915,-0.186212,0.403522,-0.088679,-13.828598,1.998765,-14.907875,,,,,,
1478537196.91,-1.080064,0.070839,1.195952,-3.700850,-1.797354,5.294686,-0.879776,-0.070779,-0.470090,-0.243424,0.325876,-0.173648,-13.828598,1.998765,-14.907875,,,,,,
1478537196.92,-1.099753,0.001396,1.188976,-3.602925,-1.957150,5.687583,-0.891094,-0.001396,-0.453816,-0.799046,-0.442970,-0.333583,-14.101446,4.622516,-14.044624,,,,,,
1478537196.93,-1.127150,-0.074760,1.190522,-2.879367,-3.031164,6.855535,-0.900670,0.074690,-0.428037,-1.555263,-1.202620,-0.437961,-14.101446,4.622516,-14.044624,,,,,,
1478537196.94,-1.167657,-0.155454,1.185295,-3.969521,-3.668365,6.264307,-0.908742,0.154828,-0.387577,-0.376963,1.146808,0.006809,-13.970871,7.369361,-12.960604,,,,,,
1478537196.95,-1.195399,-0.205085,1.160597,-3.764631,-1.656103,2.736678,-0.910865,0.203650,-0.358959,-1.244683,0.599969,-0.576878,-13.891523,8.840324,-12.097280,,,,,,
1478537196.96,-1.208181,-0.239067,1.139301,-2.745894,-0.783096,2.448431,-0.908381,0.236796,-0.344632,-0.441701,-0.039347,-1.504153,-13.891523,8.840324,-12.097280,,,,,,
1478537196.97,-1.224455,-0.278065,1.133279,-1.470671,-1.554757,3.499050,-0.904490,0.274495,-0.326420,-0.128164,-0.010915,-1.267406,-13.666607,10.520391,-10.955142,,,,,,
1478537196.99,-1.240509,-0.314253,1.139761,-0.342324,-1.751925,3.343285,-0.899624,0.309106,-0.308433,-0.417240,-0.000009,-1.152093,-13.666607,10.520391,-10.955142,,,,,,
1478537197.00,-1.258323,-0.345338,1.152129,0.236544,-2.234086,3.154963,-0.895396,0.338515,-0.289264,-0.445714,-0.194304,-0.968076,-13.221292,11.740023,-10.239105,,,,,,
1478537197.01,-1.282247,-0.376659,1.168823,0.646849,-3.026909,3.315312,-0.891454,0.367816,-0.264614,-0.524363,-0.133960,-0.826146,-13.221292,11.740023,-10.239105,,,,,,
1478537197.02,-1.308769,-0.406070,1.189834,1.136913,-3.328922,3.111630,-0.887323,0.395002,-0.237974,-0.818030,-0.083081,-0.720522,-12.910589,12.555944,-9.650642,,,,,,
1478537197.03,-1.334411,-0.431236,1.214053,1.542532,-3.389211,2.780002,-0.883187,0.417994,-0.212750,-0.966255,-0.161616,-0.656864,-12.910589,12.555944,-9.650642,,,,,,
1478537197.04,-1.357476,-0.455951,1.241028,1.780297,-3.275578,2.819536,-0.877492,0.440316,-0.190079,-0.729091,-0.283395,-0.357528,-12.750082,13.127418,-9.087149,,,,,,
1478537197.05,-1.380680,-0.480024,1.269038,1.892857,-3.451677,2.665921,-0.871002,0.461800,-0.167616,-0.683471,-0.350625,-0.226564,-12.750082,13.127418,-9.087149,,,,,,
1478537197.06,-1.405758,-0.503029,1.295171,1.693112,-3.591506,2.534167,-0.864222,0.482081,-0.143939,-0.517050,-0.321238,-0.095182,-12.601733,13.527147,-8.699569,,,,,,
1478537197.07,-1.433472,-0.530891,1.315136,1.051601,-3.546299,3.018404,-0.854238,0.506302,-0.118051,-0.394389,-0.363571,-0.060797,-12.601733,13.527147,-8.699569,,,,,,
1478537197.08,-1.462949,-0.566401,1.326306,0.312045,-3.260196,3.608765,-0.838935,0.536599,-0.090829,-0.518700,-0.398888,-0.097006,-12.455345,13.972520,-8.191642,,,,,,
1478537197.09,-1.490000,-0.607234,1.328762,-0.314803,-2.480304,3.944675,-0.818550,0.570598,-0.066280,-0.702140,-0.409282,-0.181126,-12.455345,13.972520,-8.191642,,,,,,
1478537197.10,-1.510749,-0.648227,1.324574,-0.661250,-1.483160,3.797743,-0.795719,0.603774,-0.047839,-0.874935,-0.342543,-0.258238,-11.841231,14.886247,-7.460217,,,,,,
1478537197.11,-1.522535,-0.684259,1.317151,-0.739716,-0.422779,3.237844,-0.773985,0.632099,-0.037382,-0.998002,-0.217777,-0.368135,-11.359065,15.403702,-7.153149,,,,,,
1478537197.12,-1.523493,-0.712756,1.310515,-0.545967,0.541915,2.488485,-0.755716,0.653922,-0.035775,-1.002631,-0.060874,-0.423606,-11.359065,15.403702,-7.153149,,,,,,
1478537197.13,-1.513692,-0.732123,1.308244,-0.149057,1.231952,1.605652,-0.742544,0.668450,-0.042449,-0.993158,-0.000054,-0.401994,-10.377138,16.198795,-6.883600,,,,,,
1478537197.14,-1.494735,-0.741391,1.311472,0.262404,1.700047,0.655642,-0.735397,0.675315,-0.056043,-0.963745,0.057779,-0.333712,-10.377138,16.198795,-6.883600,,,,,,
1478537197.15,-1.468736,-0.742927,1.318423,0.524144,2.155263,0.097379,-0.732659,0.676446,-0.075036,-0.766684,-0.073480,-0.143562,-9.711836,16.493744,-7.148886,,,,,,
1478537197.16,-1.435544,-0.742964,1.325456,0.432756,2.900620,0.073666,-0.729741,0.676474,-0.099306,-0.528423,-0.281866,0.166429,-9.711836,16.493744,-7.148886,,,,,,
1478537197.17,-1.402833,-0.744545,1.322753,-0.522458,3.355666,0.129461,-0.725048,0.677637,-0.122940,-0.424244,-0.251139,0.733963,-9.296608,16.443621,-7.787830,,,,,,
1478537197.19,-1.390590,-0.750208,1.297682,-2.240686,2.431270,0.293190,-0.719701,0.681791,-0.131117,-0.317866,-0.428938,0.985090,-9.296608,16.443621,-7.787830,,,,,,
1478537197.20,-1.398795,-0.758382,1.262585,-2.441659,1.326866,0.304026,-0.715238,0.687747,-0.124250,-0.605960,-0.064533,-0.020541,-8.726918,16.647367,-8.010990,,,,,,
1478537197.21,-1.404471,-0.761628,1.239517,-1.296805,0.808977,-0.081566,-0.713726,0.690100,-0.119818,-0.686252,-0.020026,-0.531061,-8.726918,16.647367,-8.010990,,,,,,
1478537197.22,-1.407900,-0.756806,1.234645,0.087036,-0.320567,-0.647163,-0.717408,0.686603,-0.117908,-0.642379,-0.108371,-0.719403,-8.458589,17.019947,-7.499576,,,,,,
1478537197.23,-1.413593,-0.745021,1.245480,1.160866,-1.512505,-1.075139,-0.726009,0.677987,-0.115080,-0.469562,-0.196771,-0.577196,-8.458589,17.019947,-7.499576,,,,,,
1478537197.24,-1.422509,-0.730875,1.266071,1.761030,-2.369593,-1.076536,-0.736419,0.667521,-0.110009,-0.309311,-0.210597,-0.419074,-8.823195,16.832100,-7.503438,,,,,,
1478537197.25,-1.434943,-0.719834,1.293388,2.180926,-3.065887,-0.625782,-0.744987,0.659260,-0.101837,-0.194267,-0.164783,-0.398804,-9.189951,16.597195,-7.586030,,,,,,
1478537197.26,-1.449327,-0.712272,1.327438,2.619010,-3.566154,-0.382892,-0.751302,0.653555,-0.091712,-0.080714,0.181193,-0.156412,-9.189951,16.597195,-7.586030,,,,,,
1478537197.27,-1.461194,-0.701670,1.363332,2.678554,-3.229163,-0.851321,-0.759183,0.645494,-0.083543,-0.102619,0.391951,-0.094634,-9.906249,16.111259,-7.730686,,,,,,
1478537197.28,-1.470373,-0.687090,1.395671,2.431318,-2.749461,-1.158563,-0.769200,0.634290,-0.077507,0.049855,0.148913,-0.211510,-9.906249,16.111259,-7.730686,,,,,,
1478537197.29,-1.478859,-0.675256,1.424553,2.158859,-2.463542,-0.798161,-0.777250,0.625098,-0.071660,0.329603,-0.151129,-0.169917,-10.719338,15.484493,-7.924403,,,,,,
1478537197.30,-1.488005,-0.669669,1.450454,1.910050,-2.388370,-0.214324,-0.781342,0.620727,-0.064837,0.413483,-0.195891,-0.211912,-10.719338,15.484493,-7.924403,,,,,,
1478537197.31,-1.498294,-0.670698,1.474557,1.755732,-2.421710,0.399691,-0.781330,0.621533,-0.056748,0.508579,-0.151868,-0.267212,-11.339052,14.984636,-8.022250,,,,,,
1478537197.32,-1.509533,-0.679294,1.499466,1.829068,-2.611637,1.120204,-0.776557,0.628244,-0.047634,0.561561,-0.167856,-0.319660,-11.339052,14.984636,-8.022250,,,,,,
1478537197.33,-1.521756,-0.695665,1.529082,2.192923,-3.075861,1.872845,-0.766705,0.640896,-0.037629,0.367779,-0.176556,-0.432234,-11.572224,14.826055,-7.983837,,,,,,
1478537197.34,-1.540374,-0.723522,1.561447,2.188657,-4.123397,3.047013,-0.749132,0.662029,-0.022797,0.505632,-0.372920,-0.051574,-11.572224,14.826055,-7.983837,,,,,,
1478537197.35,-1.569268,-0.760847,1.592486,2.127101,-4.774692,3.682609,-0.724251,0.689535,-0.001107,0.026513,0.021921,0.699395,-11.441507,15.001093,-7.844044,,,,,,
1478537197.36,-1.585935,-0.798475,1.625588,2.318629,-3.350812,3.470011,-0.697720,0.716293,0.010563,-0.114231,0.175400,0.359966,-11.441507,15.001093,-7.844044,,,,,,
1478537197.37,-1.581677,-0.829389,1.660336,2.271618,-1.610433,2.662234,-0.675286,0.737519,0.007348,-0.248816,0.615173,0.094871,-10.983222,15.493065,-7.536823,,,,,,
1478537197.38,-1.568899,-0.846456,1.690593,1.787421,-0.781282,1.227146,-0.662641,0.748937,-0.001257,-0.421466,1.002116,0.062857,-10.983222,15.493065,-7.536823,,,,,,
1478537197.40,-1.557570,-0.846660,1.713324,1.349582,-0.487480,-0.335598,-0.662431,0.749072,-0.008762,-0.354720,0.792997,-0.141262,-10.476815,15.660707,-7.902440,,,,,,
1478537197.41,-1.549788,-0.845180,1.729673,0.767277,-0.384998,0.436743,-0.663450,0.748090,-0.013940,2.248610,0.102145,1.150522,-10.517365,15.543725,-8.077599,,,,,,
1478537197.42,-1.528107,-0.870466,1.732584,0.179218,2.879263,2.269248,-0.643883,0.764629,-0.027504,-0.052543,-0.004299,-0.143639,-10.517365,15.543725,-8.077599,,,,,,
1478537197.43,-1.495861,-0.881784,1.733413,-0.020595,2.830806,0.694867,-0.633991,0.771875,-0.047598,-0.646649,0.041007,-0.191676,-10.017430,15.693396,-8.416553,,,,,,
1478537197.44,-1.472179,-0.881944,1.742976,0.817389,1.000432,-0.009047,-0.632563,0.771976,-0.062585,-0.653051,0.012982,-0.811393,-10.017430,15.693396,-8.416553,,,,,,
1478537197.45,-1.459655,-0.884655,1.769849,1.813624,-1.247186,0.624615,-0.629648,0.773696,-0.070270,-0.063727,0.035905,-0.808530,-9.412971,15.758559,-8.974055,,,,,,
1478537197.46,-1.461704,-0.895769,1.800853,1.648377,-2.976836,1.476830,-0.621204,0.780690,-0.068038,0.258319,-0.052540,-0.202958,-9.412971,15.758559,-8.974055,,,,,,
1478537197.47,-1.477473,-0.915435,1.826889,1.203480,-3.420308,2.124234,-0.606793,0.792828,-0.056793,0.242063,-0.075909,0.199096,-9.451163,15.607246,-9.195614,,,,,,
1478537197.48,-1.493545,-0.935921,1.844377,0.731461,-2.648813,1.955996,-0.591308,0.805146,-0.045770,-0.038330,0.002945,0.106211,-9.451163,15.607246,-9.195614,,,,,,
1478537197.49,-1.507314,-0.953092,1.858872,0.721756,-2.462752,1.590911,-0.577999,0.815210,-0.036742,-0.128804,-0.016458,-0.495530,-9.385813,15.801730,-8.926466,,,,,,
1478537197.50,-1.522183,-0.966210,1.880479,1.254991,-3.371569,1.225165,-0.567750,0.822737,-0.027622,0.054032,-0.138503,-0.441113,-9.385813,15.801730,-8.926466,,,,,,
1478537197.51,-1.543364,-0.976273,1.908670,1.499417,-4.457358,0.961258,-0.559903,0.828416,-0.015364,0.318067,-0.215974,0.093519,-9.396163,15.930536,-8.683321,,,,,,
1478537197.52,-1.572828,-0.986513,1.928288,0.779048,-4.128403,1.032384,-0.551601,0.834107,0.001121,0.579845,-0.328355,0.622720,-9.396163,15.930536,-8.683321,,,,,,
1478537197.53,-1.595562,-0.999742,1.930913,-0.026808,-1.713209,1.335652,-0.540354,0.841331,0.013385,0.634791,-0.425102,0.413312,-9.826814,15.909125,-8.234282,,,,,,
1478537197.54,-1.602101,-1.014552,1.924734,-0.308943,0.308717,1.428678,-0.527741,0.849244,0.016526,0.474290,-0.384523,0.097793,-9.826814,15.909125,-8.234282,,,,,,
1478537197.55,-1.599455,-1.030108,1.917964,-0.261749,0.830120,1.517447,-0.514515,0.857355,0.014749,0.250675,-0.473428,-0.150675,-9.588984,16.193394,-7.955832,,,,,,
1478537197.56,-1.597241,-1.047983,1.915823,0.023383,0.205058,1.784764,-0.499145,0.866418,0.013203,0.198700,-0.517465,-0.196125,-9.266992,16.365395,-7.985401,,,,,,
1478537197.57,-1.597183,-1.069425,1.918508,0.207938,-0.325839,2.105457,-0.480462,0.876924,0.012681,0.145195,-0.453538,-0.057602,-9.266992,16.365395,-7.985401,,,,,,
1478537197.58,-1.598681,-1.092994,1.921326,0.177967,-0.341056,2.274532,-0.459650,0.888008,0.012821,0.136392,-0.472984,0.102658,-8.602744,16.705700,-8.023859,,,,,,
1478537197.60,-1.599559,-1.117152,1.921468,-0.001707,-0.029165,2.262993,-0.438063,0.898856,0.012603,0.162993,-0.316642,0.149644,-8.602744,16.705700,-8.023859,,,,,,
1478537197.61,-1.604053,-1.139409,1.914989,-0.246388,0.185983,2.092711,-0.417901,0.908386,0.013903,0.049981,-0.338913,0.129392,-7.837543,17.076164,-8.027918,,,,,,
1478537197.62,-1.610559,-1.159941,1.906043,-0.262330,0.109433,1.920843,-0.399078,0.916780,0.015877,-0.025711,-0.263780,-0.046272,-7.837543,17.076164,-8.027918,,,,,,
1478537197.63,-1.618226,-1.179361,1.899655,-0.121476,-0.251443,1.848022,-0.381086,0.924362,0.018088,0.066969,-0.261246,0.045678,-7.071613,17.436569,-7.964183,,,,,,
1478537197.64,-1.627762,-1.198549,1.892150,-0.230721,-0.186389,1.828177,-0.363120,0.931512,0.020708,0.326361,-0.373773,0.261305,-7.071613,17.436569,-7.964183,,,,,,
1478537197.65,-1.641146,-1.216464,1.871820,-0.676106,0.857097,1.687619,-0.346106,0.937878,0.024389,0.223044,-0.611493,0.014033,-6.423577,17.725698,-7.874468,,,,,,
1478537197.66,-1.640525,-1.231819,1.849456,-0.537962,2.457497,1.474950,-0.331715,0.943095,0.023168,0.010578,-0.339885,-0.380544,-6.423577,17.725698,-7.874468,,,,,,
1478537197.67,-1.624550,-1.248164,1.834096,-0.360068,2.925739,1.654808,-0.316606,0.948404,0.017035,0.274492,-0.370813,-0.064124,-5.599297,18.030798,-7.810771,,,,,,
1478537197.68,-1.617604,-1.267366,1.814101,-0.554464,2.245931,1.912448,-0.298468,0.954317,0.013981,0.366416,-0.170534,-0.032123,-5.599297,18.030798,-7.810771,,,,,,
1478537197.69,-1.624495,-1.288904,1.789246,-0.524386,1.463813,2.144393,-0.277773,0.960531,0.014930,-0.016355,0.190180,-0.366035,-4.498279,18.284760,-7.931135,,,,,,
1478537197.70,-1.622967,-1.313409,1.775898,-0.125937,1.297155,2.393344,-0.254208,0.967058,0.013274,-0.332721,0.023206,-0.080199,-4.498279,18.284760,-7.931135,,,,,,
1478537197.71,-1.618942,-1.338743,1.771354,0.058416,0.611517,2.440693,-0.229709,0.973196,0.011068,-0.192471,0.044718,0.166865,-3.393662,18.533907,-7.902356,,,,,,
1478537197.72,-1.611302,-1.366291,1.781121,0.430799,-0.453874,2.633304,-0.202916,0.979162,0.008224,0.082631,-0.196569,0.068696,-3.393662,18.533907,-7.902356,,,,,,
1478537197.73,-1.571100,-1.394617,1.829833,1.112330,-0.799107,2.704161,-0.175270,0.984520,0.000053,0.189872,-0.048653,0.004662,-2.359889,18.656790,-7.989059,,,,,,
1478537197.74,-1.514231,-1.418729,1.898677,0.859915,-1.182768,2.121975,-0.151240,0.988460,-0.008564,-0.190603,-0.207851,0.493351,-1.897069,18.637608,-8.155404,,,,,,
1478537197.75,-1.478984,-1.437458,1.946148,0.448241,-0.961102,1.793412,-0.132384,0.991124,-0.012189,0.035963,0.246913,-0.102008,-1.897069,18.637608,-8.155404,,,,,,
1478537197.76,-1.409305,-1.455755,2.022860,0.802427,-0.588438,1.848651,-0.113294,0.993390,-0.018457,-0.050097,0.724566,-0.963980,-1.275909,18.574556,-8.415926,,,,,,
1478537197.77,-1.291082,-1.468418,2.159178,1.150120,-2.093206,1.336980,-0.098227,0.994764,-0.028215,-0.031244,1.186312,-1.013365,-1.275909,18.574556,-8.415926,,,,,,
1478537197.78,-1.202951,-1.475813,2.278178,0.691101,-3.073288,0.940941,-0.088496,0.995493,-0.034105,0.071665,0.946219,-0.324446,-0.833395,18.449291,-8.740655,,,,,,
1478537197.79,-1.199360,-1.479645,2.315228,-0.035239,-3.026054,0.250203,-0.084818,0.995849,-0.033038,-0.494146,1.108262,0.709369,-0.833395,18.449291,-8.740655,,,,,,
1478537197.81,-1.284302,-1.478253,2.248425,-0.646360,-1.329600,-0.447089,-0.088645,0.995721,-0.026115,-0.490320,1.108390,0.702445,-1.109758,18.370068,-8.875752,,,,,,
1478537197.82,-1.392125,-1.472584,2.141529,-0.817792,0.258029,-0.832036,-0.096494,0.995181,-0.017427,-0.082095,1.051801,-0.080626,-1.109758,18.370068,-8.875752,,,,,,
1478537197.83,-1.456637,-1.463399,2.067972,-0.501800,0.914265,-0.994311,-0.106493,0.994238,-0.012210,-0.184370,0.130823,-0.133420,-1.489867,18.476677,-8.594336,,,,,,
1478537197.84,-1.485315,-1.453192,2.030305,-0.216207,0.764911,-0.970497,-0.116905,0.993093,-0.010018,0.001290,-0.273061,-0.146599,-1.489867,18.476677,-8.594336,,,,,,
1478537197.85,-1.461539,-1.446941,2.047304,0.422130,0.652748,-0.414843,-0.122802,0.992340,-0.013471,0.248550,-0.477127,-0.141681,-1.725907,18.522701,-8.449896,,,,,,
1478537197.86,-1.383312,-1.445615,2.119146,0.959574,0.658934,0.112828,-0.122667,0.992175,-0.023271,0.173188,-0.225558,-0.095366,-1.725907,18.522701,-8.449896,,,,,,
1478537197.87,-1.314339,-1.444785,2.182435,0.649921,0.526698,0.028418,-0.121568,0.992071,-0.031879,-0.114806,-0.019186,-0.111523,-1.718986,18.412167,-8.689482,,,,,,
1478537197.88,-1.263049,-1.439365,2.233177,0.793279,-0.028492,-0.461760,-0.124896,0.991375,-0.039698,-0.116941,0.027073,-0.264547,-1.718986,18.412167,-8.689482,,,,,,
1478537197.89,-1.223983,-1.426903,2.276636,0.943383,-0.510699,-1.095342,-0.134860,0.989665,-0.048741,-0.259733,0.142430,-0.239833,-1.701034,18.269442,-8.989100,,,,,,
1478537197.90,-1.224628,-1.408759,2.283424,0.534253,-0.757300,-1.764276,-0.151759,0.986901,-0.054738,-0.272817,0.287193,0.092626,-1.917183,18.163982,-9.157729,,,,,,
1478537197.91,-1.276119,-1.386468,2.241348,-0.158951,-1.009923,-2.362396,-0.175386,0.983060,-0.053232,-0.176970,0.323688,0.252207,-1.917183,18.163982,-9.157729,,,,,,
1478537197.92,-1.343692,-1.361999,2.182271,-0.523180,-0.844976,-2.531104,-0.201961,0.978281,-0.046671,-0.033421,0.168570,0.230830,-2.803311,18.002161,-9.248436,,,,,,
1478537197.93,-1.396222,-1.341204,2.134763,-0.558546,-0.485359,-1.942855,-0.224122,0.973759,-0.039528,0.154710,-0.126622,0.100411,-2.803311,18.002161,-9.248436,,,,,,
1478537197.94,-1.422317,-1.330566,2.108913,-0.342154,0.051353,-0.767717,-0.235308,0.971283,-0.035197,0.523150,-0.539627,-0.022435,-3.828836,17.937904,-9.002306,,,,,,
1478537197.95,-1.427978,-1.332336,2.099720,-0.212097,0.349334,0.352562,-0.233802,0.971703,-0.033620,0.196296,-0.015297,-0.014094,-3.828836,17.937904,-9.002306,,,,,,
1478537197.96,-1.430396,-1.338053,2.094895,-0.169934,0.182256,0.543638,-0.228379,0.973037,-0.032277,-0.024795,0.003800,-0.009273,-3.988160,17.957922,-8.892554,,,,,,
1478537197.97,-1.430529,-1.343616,2.091458,-0.155227,0.363451,0.478243,-0.223019,0.974305,-0.031489,0.021542,0.020232,-0.047216,-3.988160,17.957922,-8.892554,,,,,,
1478537197.98,-1.435797,-1.345587,2.082201,-0.233564,0.304930,0.031671,-0.221279,0.974747,-0.030055,0.090420,-0.107285,-0.024174,-3.743346,18.030916,-8.851175,,,,,,
1478537197.99,-1.437837,-1.345135,2.078708,0.011858,0.119960,-0.002137,-0.221777,0.974646,-0.029662,0.360937,-0.854132,0.033034,-3.743346,18.030916,-8.851175,,,,,,
1478537198.01,-1.420524,-1.352489,2.093021,0.235452,0.401770,1.049858,-0.214137,0.976265,-0.032423,0.560008,-1.614708,0.043150,-3.678044,18.061926,-8.815259,,,,,,
1478537198.02,-1.393145,-1.367534,2.114988,0.174859,0.594472,1.470083,-0.198689,0.979413,-0.035673,0.482838,-1.261548,0.075987,-3.678044,18.061926,-8.815259,,,,,,
1478537198.03,-1.367908,-1.377731,2.133299,0.176186,0.781618,0.838999,-0.187932,0.981421,-0.038661,0.126287,-1.218085,0.083995,-3.174352,18.104900,-8.922221,,,,,,
1478537198.04,-1.358616,-1.378284,2.128552,-0.286128,1.608227,-0.280532,-0.187035,0.981527,-0.040292,-0.004829,-1.141210,0.159554,-3.174352,18.104900,-8.922221,,,,,,
1478537198.05,-1.390525,-1.373161,2.063842,-1.270157,3.509259,-0.721747,-0.193169,0.980534,-0.035205,0.075463,-0.633167,0.371814,-2.783705,18.133070,-8.995146,,,,,,
1478537198.06,-1.418161,-1.369891,1.995488,-1.126307,3.565786,-0.431181,-0.197236,0.979886,-0.030341,0.089494,0.272845,0.079658,-2.637264,18.213835,-8.875301,,,,,,
1478537198.07,-1.414275,-1.375198,1.966096,-0.446756,3.031760,0.756454,-0.191978,0.980932,-0.030296,0.243049,0.487437,-0.111397,-2.637264,18.213835,-8.875301,,,,,,
1478537198.08,-1.385102,-1.391272,1.964229,-0.339032,2.836694,1.670104,-0.175492,0.983929,-0.032968,0.366669,0.694050,-0.265998,-2.025382,18.379452,-8.692725,,,,,,
1478537198.09,-1.379205,-1.412958,1.951350,-0.668635,1.349305,2.128298,-0.154307,0.987569,-0.029931,0.352885,0.165568,-0.504859,-2.025382,18.379452,-8.692725,,,,,,
1478537198.10,-1.371477,-1.436541,1.964664,0.012326,-1.173629,2.191755,-0.131202,0.991001,-0.026503,-0.068261,-0.130726,-0.673738,-0.918588,18.512197,-8.597944,,,,,,
1478537198.11,-1.296549,-1.451613,2.070926,1.123558,-3.468564,1.486136,-0.114458,0.992906,-0.032201,0.276811,-0.633974,-0.129771,-0.918588,18.512197,-8.597944,,,,,,
1478537198.12,-1.665059,-1.506683,1.749255,2.336819,-4.052250,0.848930,-0.063785,0.997945,0.006030,0.625674,-1.413290,0.709607,-0.463274,18.478909,-8.705473,,,,,,
1478537198.13,-1.218148,-1.504621,2.212964,2.822942,-0.527394,-0.162641,-0.062057,0.997811,-0.022839,0.623947,-1.413155,0.738476,-0.463274,18.478909,-8.705473,,,,,,
1478537198.14,-0.996187,-1.486342,2.444114,2.003932,-1.428073,-0.990796,-0.070808,0.996436,-0.045847,0.438117,-0.976187,-0.054342,-0.003595,18.524616,-8.620240,,,,,,
1478537198.15,-1.027516,-1.464535,2.442488,0.801380,-2.963995,-1.992827,-0.090790,0.994360,-0.054828,0.284074,-0.472341,-0.490918,-0.003595,18.524616,-8.620240,,,,,,
1478537198.16,-1.162156,-1.437763,2.331561,-0.123232,-2.139014,-3.103060,-0.121720,0.991164,-0.052707,-0.089019,0.460008,-0.168988,-0.846349,18.199968,-9.247422,,,,,,
1478537198.17,-1.242357,-1.405189,2.261753,0.363386,-0.504139,-3.195994,-0.156039,0.986318,-0.053175,-1.159909,1.974222,0.083281,-0.846349,18.199968,-9.247422,,,,,,
1478537198.18,-1.246018,-1.377029,2.244447,0.570252,1.739666,-2.378499,-0.182491,0.981286,-0.061445,-1.188496,1.932884,-0.094103,-2.335896,18.072544,-9.241031,,,,,,
1478537198.19,-1.235207,-1.361306,2.233019,0.163719,2.017756,-1.189591,-0.196360,0.978137,-0.068487,-1.040883,1.502728,-0.171366,-2.335896,18.072544,-9.241031,,,,,,
1478537198.20,-1.226386,-1.356577,2.228798,0.089830,0.957982,-0.225946,-0.200101,0.977143,-0.071778,-0.865298,0.964035,-0.027221,-2.781549,17.875328,-9.497662,,,,,,
1478537198.22,-1.202506,-1.359235,2.247599,0.313983,0.436100,0.518293,-0.195906,0.977704,-0.075600,-0.536669,0.353076,0.076424,-2.743201,17.855141,-9.546659,,,,,,
1478537198.23,-1.173189,-1.363359,2.273444,0.320528,0.410196,0.515145,-0.189886,0.978562,-0.079748,-0.260599,0.005355,0.063695,-2.743201,17.855141,-9.546659,,,,,,
1478537198.24,-1.146986,-1.366255,2.294906,0.257612,0.509604,0.414442,-0.185148,0.979154,-0.083530,-0.181277,0.099429,-0.003888,-2.478333,17.820406,-9.683022,,,,,,
1478537198.25,-1.127779,-1.368640,2.309397,0.109208,0.418386,0.274024,-0.181399,0.979636,-0.086069,-0.020459,0.065622,-0.117239,-2.478333,17.820406,-9.683022,,,,,,
1478537198.26,-1.123518,-1.370761,2.312830,-0.066296,-0.018692,0.212640,-0.179157,0.980060,-0.085942,0.049335,-0.034442,-0.117458,-2.239991,17.794807,-9.787605,,,,,,
1478537198.27,-1.126541,-1.373608,2.311803,-0.152844,-0.223448,0.234470,-0.176896,0.980621,-0.084200,0.000931,0.027039,-0.093046,-2.239991,17.794807,-9.787605,,,,,,
1478537198.28,-1.133238,-1.376781,2.307381,-0.218596,-0.215241,0.240741,-0.174637,0.981238,-0.081695,-0.031342,0.074457,-0.081131,-2.167374,17.821772,-9.754835,,,,,,
1478537198.29,-1.143778,-1.379697,2.298608,-0.273399,-0.173969,0.147269,-0.172883,0.981796,-0.078665,0.000306,0.136780,-0.061716,-2.167374,17.821772,-9.754835,,,,,,
1478537198.30,-1.160788,-1.379876,2.283050,-0.254967,-0.163528,-0.196048,-0.174035,0.981830,-0.075643,0.103066,0.213528,-0.020244,-2.129651,17.878668,-9.658559,,,,,,
1478537198.31,-1.182082,-1.376900,2.263498,-0.202929,-0.224210,-0.440790,-0.178309,0.981261,-0.073027,0.162607,0.129075,-0.032183,-2.129651,17.878668,-9.658559,,,,,,
1478537198.32,-1.196642,-1.373199,2.252118,-0.013723,-0.323880,-0.365242,-0.182733,0.980541,-0.071750,0.173150,-0.006649,0.004260,-2.260193,17.915773,-9.559628,,,,,,
1478537198.33,-1.203410,-1.371755,2.247348,-0.076708,-0.165823,-0.090414,-0.184535,0.980257,-0.071020,0.028697,-0.054170,-0.022211,-2.260193,17.915773,-9.559628,,,,,,
1478537198.34,-1.220469,-1.373345,2.233079,-0.348705,-0.376673,0.080922,-0.184256,0.980570,-0.067327,-0.088266,-0.007959,-0.066111,-2.419087,17.911701,-9.528318,,,,,,
1478537198.35,-1.240475,-1.375514,2.217104,-0.365241,-0.362053,0.095154,-0.183553,0.980993,-0.062937,-0.082988,0.031809,-0.010457,-2.439251,17.943207,-9.463683,,,,,,
1478537198.36,-1.281018,-1.380859,2.177727,-1.094425,-0.147470,0.376580,-0.180926,0.982016,-0.053947,-0.107603,-0.090735,-0.048104,-2.439251,17.943207,-9.463683,,,,,,
1478537198.37,-1.337389,-1.391049,2.116740,-1.145830,0.415746,0.714643,-0.173933,0.983889,-0.041351,-0.320772,-0.133303,-0.389374,-2.429437,18.068975,-9.223877,,,,,,
1478537198.38,-1.369951,-1.399928,2.083085,-0.575136,0.157579,0.653517,-0.166620,0.985438,-0.033922,-0.082785,-0.119074,-0.081663,-2.429437,18.068975,-9.223877,,,,,,
1478537198.39,-1.365398,-1.403866,2.079203,0.010924,0.948603,0.246348,-0.162664,0.986099,-0.033889,0.218755,0.115585,-0.065095,-2.130665,18.292336,-8.849898,,,,,,
1478537198.40,-1.339570,-1.402562,2.097116,0.379461,0.651091,-0.137001,-0.162985,0.985882,-0.038373,0.194922,0.097950,-0.040713,-2.130665,18.292336,-8.849898,,,,,,
1478537198.42,-1.309478,-1.399867,2.125179,0.515647,0.119992,-0.118711,-0.164323,0.985427,-0.043946,-0.059890,-0.008468,-0.040893,-1.927308,18.283058,-8.915449,,,,,,
1478537198.43,-1.282333,-1.397806,2.153224,0.470764,-0.076255,-0.049818,-0.165017,0.985075,-0.048967,-0.207862,-0.023923,-0.039610,-1.927308,18.283058,-8.915449,,,,,,
1478537198.44,-1.265055,-1.397040,2.171352,0.235671,-0.047564,0.045646,-0.164866,0.984942,-0.052038,-0.280797,-0.032962,-0.054087,-1.948950,18.184925,-9.109338,,,,,,
1478537198.45,-1.260966,-1.397944,2.176490,0.008987,-0.113862,0.119533,-0.163803,0.985098,-0.052440,-0.281799,0.004007,-0.062169,-1.948950,18.184925,-9.109338,,,,,,
1478537198.46,-1.262482,-1.398949,2.176561,-0.026071,-0.154501,0.074334,-0.162939,0.985271,-0.051891,-0.202890,0.010610,-0.055744,-1.939308,18.152876,-9.175086,,,,,,
1478537198.47,-1.261647,-1.399067,2.178877,0.062079,-0.132434,0.013911,-0.162785,0.985291,-0.051992,-0.129543,-0.006668,-0.059260,-1.939308,18.152876,-9.175086,,,,,,
1478537198.48,-1.254215,-1.398657,2.187688,0.179418,-0.118074,0.008004,-0.162779,0.985220,-0.053326,-0.094942,-0.026572,-0.047977,-1.945447,18.154757,-9.170057,,,,,,
1478537198.49,-1.240765,-1.397974,2.202598,0.271633,-0.117571,0.014233,-0.162683,0.985103,-0.055729,-0.085822,-0.004497,-0.030514,-1.945447,18.154757,-9.170057,,,,,,
1478537198.50,-1.226542,-1.396784,2.218585,0.283307,-0.157902,-0.033976,-0.162977,0.984898,-0.058432,-0.067140,-0.007893,-0.035363,-1.963990,18.116528,-9.241434,,,,,,
1478537198.51,-1.215093,-1.395191,2.232356,0.261035,-0.214606,-0.071361,-0.163768,0.984621,-0.060841,-0.064946,0.013685,-0.049587,-1.981936,18.088337,-9.292680,,,,,,
1478537198.52,-1.205470,-1.393208,2.244770,0.261406,-0.262414,-0.120833,-0.164998,0.984273,-0.063111,-0.069987,-0.005559,-0.063247,-1.981936,18.088337,-9.292680,,,,,,
1478537198.53,-1.200440,-1.390613,2.253540,0.213085,-0.377081,-0.195635,-0.167060,0.983811,-0.064865,-0.076593,-0.018036,-0.069611,-2.057733,18.033081,-9.383157,,,,,,
1478537198.54,-1.191571,-1.387274,2.266818,0.400084,-0.383315,-0.202642,-0.169528,0.983207,-0.067559,-0.098966,0.049905,-0.074027,-2.057733,18.033081,-9.383157,,,,,,
1478537198.55,-1.169443,-1.382802,2.290259,0.573143,0.028773,-0.258611,-0.172037,0.982381,-0.073011,-0.106893,-0.077092,-0.049853,-2.204758,17.969252,-9.471798,,,,,,
1478537198.56,-1.149086,-1.378006,2.308422,0.430723,0.270477,-0.279464,-0.174812,0.981474,-0.078425,0.144966,-0.525587,-0.117345,-2.204758,17.969252,-9.471798,,,,,,
1478537198.57,-1.143627,-1.371869,2.313116,0.278659,-0.004437,-0.635143,-0.179860,0.980279,-0.081872,0.345540,-1.015527,-0.157218,-2.287804,17.853752,-9.668478,,,,,,
1478537198.58,-1.137826,-1.365661,2.321177,0.409147,-0.148252,-0.353654,-0.184903,0.979033,-0.085466,0.009274,0.067323,-0.380385,-2.287804,17.853752,-9.668478,,,,,,
1478537198.59,-1.123747,-1.365870,2.336356,0.171200,-0.150115,0.280699,-0.183497,0.979076,-0.087972,-0.143911,0.011006,-0.159602,-2.481353,17.757322,-9.797466,,,,,,
1478537198.60,-1.113670,-1.370571,2.350666,0.051627,-0.435430,0.591628,-0.178469,0.980022,-0.087784,-0.148359,-0.189342,-0.120391,-2.481353,17.757322,-9.797466,,,,,,
1478537198.62,-1.091929,-1.377520,2.378820,0.213594,-0.562118,0.917436,-0.170471,0.981380,-0.088503,-0.166184,0.014790,-0.078580,-2.403781,17.742531,-9.843494,,,,,,
1478537198.63,-1.046347,-1.387915,2.429483,0.331155,-0.360548,1.439426,-0.157421,0.983324,-0.091066,-0.268558,0.277251,-0.098525,-2.403781,17.742531,-9.843494,,,,,,
1478537198.64,-0.976017,-1.401656,2.506204,0.420948,-0.592524,1.880029,-0.139427,0.985730,-0.094322,-0.371559,0.483188,-0.123360,-2.106451,17.742937,-9.910652,,,,,,
1478537198.65,-0.890215,-1.415517,2.603631,0.396421,-1.084244,1.952978,-0.120200,0.987968,-0.097316,-0.309656,0.438347,-0.009358,-2.106451,17.742937,-9.910652,,,,,,
1478537198.66,-0.798307,-1.427215,2.709172,0.365640,-1.201364,1.742334,-0.102476,0.989710,-0.099864,-0.133608,0.424078,-0.015340,-1.565460,17.729906,-10.033429,,,,,,
1478537198.67,-0.720484,-1.434368,2.798879,0.318621,-0.966849,1.178434,-0.089729,0.990708,-0.102206,0.113670,0.219070,0.001742,-1.565460,17.729906,-10.033429,,,,,,
1478537198.68,-0.668763,-1.437212,2.858350,0.269113,-0.594000,0.633012,-0.082579,0.991091,-0.104498,0.237013,0.065214,-0.020960,-1.214527,17.701067,-10.132476,,,,,,
1478537198.69,-0.637150,-1.437514,2.894032,0.250749,-0.282227,0.312285,-0.079056,0.991131,-0.106815,0.198700,-0.030941,-0.061734,-1.146766,17.680630,-10.175963,,,,,,
1478537198.70,-0.611402,-1.437105,2.921499,0.228927,-0.110061,0.264911,-0.076513,0.991077,-0.109147,-0.125254,-0.098575,-0.115081,-1.146766,17.680630,-10.175963,,,,,,
1478537198.71,-0.569168,-1.437271,2.965254,0.333122,-0.137915,0.561235,-0.071747,0.991099,-0.112141,-0.217330,-0.040797,-0.054668,-1.082139,17.635859,-10.260379,,,,,,
1478537198.72,-0.509108,-1.438128,3.029309,0.346630,-0.344991,0.782008,-0.064473,0.991212,-0.115504,-0.242595,-0.078249,-0.028280,-1.082139,17.635859,-10.260379,,,,,,
1478537198.73,-0.434723,-1.438880,3.106987,0.388617,-0.217432,0.936220,-0.055397,0.991312,-0.119299,-0.233895,-0.096658,-0.051172,-0.906229,17.578928,-10.374488,,,,,,
1478537198.74,-0.346958,-1.439154,-3.085200,0.413208,-0.259547,1.107763,-0.044634,0.991348,-0.123441,-0.195722,-0.075897,-0.088565,-0.906229,17.578928,-10.374488,,,,,,
1478537198.75,-0.246779,-1.439064,-2.978973,0.382355,-0.590527,1.325081,-0.032087,0.991336,-0.127372,-0.160098,-0.031909,-0.083367,-0.597306,17.507887,-10.516038,,,,,,
1478537198.76,-0.136242,-1.438910,-2.857904,0.276418,-1.002199,1.525507,-0.017861,0.991316,-0.130286,-0.139457,0.028246,-0.083948,-0.597306,17.507887,-10.516038,,,,,,
1478537198.77,-0.018353,-1.437392,-2.726308,0.282597,-1.244697,1.689129,-0.002441,0.991115,-0.132986,-0.121201,0.041753,-0.083383,-0.247357,17.442173,-10.638575,,,,,,
1478537198.78,0.109564,-1.433224,-2.582721,0.313232,-1.391015,1.902991,0.014995,0.990552,-0.136316,-0.123043,0.070941,-0.031348,-0.247357,17.442173,-10.638575,,,,,,
1478537198.79,0.221229,-1.426941,-2.455352,0.307587,-1.356925,1.670534,0.031457,0.989671,-0.139866,-0.088266,0.186217,-0.008602,0.105204,17.379311,-10.743294,,,,,,
1478537198.80,0.281152,-1.421629,-2.382374,0.201755,-1.070415,0.912354,0.041235,0.988895,-0.142780,0.076166,0.217755,0.066196,0.105204,17.379311,-10.743294,,,,,,
1478537198.81,0.314322,-1.419002,-2.342570,0.043890,-0.419305,0.580206,0.046751,0.988501,-0.143804,0.156618,-0.148596,0.004354,0.341903,17.310232,-10.849374,,,,,,
1478537198.83,0.340832,-1.416812,-2.313232,0.071132,-0.243232,0.398564,0.051269,0.988168,-0.144554,0.011795,-0.072213,-0.119286,0.341903,17.310232,-10.849374,,,,,,
1478537198.84,0.346432,-1.415533,-2.304254,0.072710,-0.316279,0.117736,0.052507,0.987971,-0.145453,0.060774,0.221242,-0.056863,0.445138,17.290646,-10.876826,,,,,,
1478537198.85,0.344788,-1.415236,-2.302373,-0.013399,-0.308399,0.002300,0.052367,0.987925,-0.145816,0.035249,0.191503,-0.002149,0.439495,17.281843,-10.891035,,,,,,
1478537198.86,0.343083,-1.415754,-2.303912,-0.035827,0.070325,-0.049796,0.051946,0.988005,-0.145422,-0.011160,0.050646,-0.064615,0.439495,17.281843,-10.891035,,,,,,
1478537198.87,0.337444,-1.415768,-2.308287,0.037973,-0.270461,-0.060149,0.051121,0.988007,-0.145700,0.094478,0.047103,-0.018576,0.398902,17.284317,-10.888671,,,,,,
1478537198.88,0.327044,-1.415692,-2.312942,0.014324,-0.589643,-0.062461,0.049627,0.987995,-0.146295,-0.001592,0.049373,-0.108527,0.398902,17.284317,-10.888671,,,,,,
1478537198.89,0.317514,-1.415531,-2.316985,0.066668,-0.507900,-0.039782,0.048280,0.987971,-0.146912,-0.045335,0.051000,-0.045120,0.298951,17.279133,-10.900095,,,,,,
1478537198.90,0.308522,-1.415007,-2.319726,0.046121,-0.608340,-0.022440,0.047115,0.987889,-0.147834,-0.095454,0.017390,-0.043038,0.298951,17.279133,-10.900095,,,,,,
1478537198.91,0.302518,-1.414799,-2.320407,0.014540,-0.464097,0.007784,0.046287,0.987857,-0.148310,-0.144935,0.021344,-0.071050,0.156471,17.268629,-10.919703,,,,,,
1478537198.92,0.303191,-1.414403,-2.316400,0.022896,-0.258266,0.095187,0.046504,0.987795,-0.148652,-0.189845,0.012800,-0.052169,0.156471,17.268629,-10.919703,,,,,,
1478537198.93,0.310259,-1.413873,-2.308321,0.010742,-0.026165,0.132793,0.047713,0.987713,-0.148819,-0.210021,-0.040050,-0.033417,0.073992,17.263966,-10.927942,,,,,,
1478537198.94,0.319019,-1.413024,-2.301164,0.056485,0.222761,0.123119,0.049278,0.987580,-0.149191,-0.200630,-0.057419,-0.034052,0.073992,17.263966,-10.927942,,,,,,
1478537198.95,0.327393,-1.411794,-2.296500,0.096637,0.388953,0.095138,0.050916,0.987386,-0.149923,-0.164518,-0.027226,-0.028391,0.128962,17.257317,-10.937931,,,,,,
1478537198.96,0.334400,-1.410567,-2.293671,0.095326,0.391585,0.075451,0.052363,0.987191,-0.150707,-0.125208,0.027549,-0.030369,0.128962,17.257317,-10.937931,,,,,,
1478537198.97,0.341409,-1.409349,-2.290232,0.090861,0.329529,0.098510,0.053821,0.986996,-0.151470,-0.104678,0.049412,-0.029027,0.249382,17.235636,-10.969986,,,,,,
1478537198.98,0.340620,-1.409157,-2.294262,-0.002585,0.289233,-0.174431,0.053764,0.986965,-0.151690,-0.092293,0.122425,-0.037504,0.249382,17.235636,-10.969986,,,,,,
1478537198.99,0.325850,-1.411354,-2.309376,-0.137943,-0.119047,-0.249213,0.050824,0.987316,-0.150414,0.082217,0.151112,-0.053749,0.330591,17.220575,-10.991468,,,,,,
1478537199.00,0.317010,-1.412363,-2.313932,-0.037275,-0.470048,-0.056640,0.049181,0.987476,-0.149910,-0.058184,-0.067935,-0.032448,0.330591,17.220575,-10.991468,,,,,,
1478537199.01,0.310471,-1.411971,-2.315670,0.058550,-0.443903,-0.009093,0.048318,0.987414,-0.150596,-0.109079,-0.025744,-0.019478,0.215638,17.243860,-10.957772,,,,,,
1478537199.03,0.304374,-1.411247,-2.317956,0.080302,-0.334933,-0.010618,0.047614,0.987299,-0.151571,-0.090781,-0.026331,-0.033152,0.160353,17.238871,-10.966566,,,,,,
1478537199.04,0.300247,-1.410244,-2.319934,0.105254,-0.159249,-0.002186,0.047281,0.987139,-0.152712,-0.055719,-0.030260,-0.045057,0.160353,17.238871,-10.966566,,,,,,
1478537199.05,0.298283,-1.409372,-2.321544,0.077308,-0.001171,0.003328,0.047233,0.986999,-0.153627,-0.013450,-0.021744,-0.064940,0.092104,17.218550,-10.999226,,,,,,
1478537199.06,0.300194,-1.408944,-2.319912,0.015189,0.030193,0.052186,0.047652,0.986930,-0.153940,-0.005263,-0.013603,-0.073416,0.092104,17.218550,-10.999226,,,,,,
1478537199.07,0.307104,-1.408926,-2.313238,-0.045386,0.031800,0.111380,0.048720,0.986928,-0.153624,-0.021864,-0.009739,-0.076066,0.097950,17.204851,-11.020594,,,,,,
1478537199.08,0.317291,-1.409166,-2.303151,-0.075519,0.016468,0.147998,0.050208,0.986966,-0.152894,-0.034782,-0.008344,-0.075530,0.097950,17.204851,-11.020594,,,,,,
1478537199.09,0.328603,-1.409188,-2.291456,-0.051024,-0.034337,0.177417,0.051928,0.986970,-0.152297,-0.041292,0.017684,-0.062181,0.147163,17.215912,-11.002755,,,,,,
1478537199.10,0.341870,-1.408782,-2.277310,-0.029138,-0.072976,0.228670,0.054078,0.986904,-0.151972,-0.066987,0.037998,-0.059393,0.147163,17.215912,-11.002755,,,,,,
1478537199.11,0.354026,-1.407994,-2.264112,0.010185,-0.093614,0.211189,0.056191,0.986777,-0.152032,-0.092171,0.038492,-0.051825,0.206971,17.226007,-10.985979,,,,,,
1478537199.12,0.363846,-1.407188,-2.252920,0.006610,-0.121802,0.178499,0.057964,0.986646,-0.152216,-0.086941,0.068545,-0.048177,0.206971,17.226007,-10.985979,,,,,,
1478537199.13,0.369329,-1.406542,-2.245762,0.023335,-0.165585,0.103440,0.059028,0.986541,-0.152491,-0.073585,0.121232,-0.055990,0.257388,17.223598,-10.988692,,,,,,
1478537199.14,0.367878,-1.405938,-2.244546,0.043242,-0.286958,-0.007058,0.059021,0.986442,-0.153133,-0.024246,0.128701,-0.056477,0.257388,17.223598,-10.988692,,,,,,
1478537199.15,0.359706,-1.405640,-2.250109,0.064195,-0.239211,-0.081149,0.057871,0.986393,-0.153885,-0.071604,0.165280,0.006104,0.240600,17.215714,-11.001421,,,,,,
1478537199.16,0.349256,-1.405295,-2.258526,0.082642,-0.189285,-0.122198,0.056376,0.986336,-0.154801,-0.088893,0.127327,0.030197,0.198173,17.209234,-11.012399,,,,,,
1478537199.17,0.341540,-1.404680,-2.265654,0.098757,-0.005536,-0.050254,0.055383,0.986234,-0.155803,-0.160181,0.093844,0.028544,0.198173,17.209234,-11.012399,,,,,,
1478537199.18,0.346180,-1.403913,-2.263540,0.020135,0.325566,0.077932,0.056362,0.986107,-0.156256,-0.210125,0.084327,-0.001856,0.131195,17.189928,-11.043509,,,,,,
1478537199.19,0.360550,-1.405373,-2.254642,-0.241168,0.587324,0.086911,0.058094,0.986349,-0.154082,-0.200733,0.005015,-0.063646,0.131195,17.189928,-11.043509,,,,,,
1478537199.20,0.267755,-1.407862,-2.352636,-0.422477,0.685284,0.224831,0.042916,0.986756,-0.156434,-0.155206,-0.018433,-0.056380,0.246328,17.203724,-11.020033,,,,,,
1478537199.21,0.309205,-1.411966,-2.318323,-0.543756,0.716112,0.440869,0.048129,0.987413,-0.150663,-0.124362,-0.084749,-0.085436,0.246328,17.203724,-11.020033,,,,,,
1478537199.22,0.362007,-1.414988,-2.270789,-0.478250,0.480044,0.617503,0.054957,0.987886,-0.145121,-0.020426,-0.081636,-0.076879,0.168337,17.237471,-10.968646,,,,,,
1478537199.24,0.414223,-1.415408,-2.221005,-0.247249,0.226172,0.677861,0.062289,0.987951,-0.141676,0.035336,-0.096930,-0.074648,0.168337,17.237471,-10.968646,,,,,,
1478537199.25,0.460288,-1.412190,-2.173439,0.056218,-0.209649,0.808565,0.070159,0.987448,-0.141504,0.082811,-0.127722,-0.075156,0.490254,17.326885,-10.817053,,,,,,
1478537199.26,0.499647,-1.406422,-2.127879,0.187524,-0.613788,0.872473,0.078400,0.986521,-0.143631,0.064178,-0.023066,-0.034424,0.490254,17.326885,-10.817053,,,,,,
1478537199.27,0.526602,-1.400267,-2.092540,0.240857,-0.803946,0.730505,0.085293,0.985495,-0.146712,0.000950,0.184076,-0.047990,0.718509,17.300026,-10.847246,,,,,,
1478537199.28,0.538215,-1.395537,-2.071840,0.200155,-0.812833,0.436945,0.089380,0.984681,-0.149713,-0.041391,0.066848,-0.001974,0.718509,17.300026,-10.847246,,,,,,
1478537199.29,0.534349,-1.394003,-2.070792,0.092702,-0.306259,-0.023266,0.089569,0.984413,-0.151357,-0.046341,-0.152504,0.004751,0.772148,17.238102,-10.941736,,,,,,
1478537199.30,0.531419,-1.393414,-2.072408,0.039591,-0.148965,0.056710,0.089419,0.984309,-0.152119,0.015637,0.060186,-0.116604,0.772148,17.238102,-10.941736,,,,,,
1478537199.31,0.535176,-1.392881,-2.064982,-0.009726,-0.412120,0.137707,0.090257,0.984215,-0.152233,0.035231,0.052406,-0.168583,0.720955,17.216780,-10.978734,,,,,,
1478537199.32,0.531789,-1.390620,-2.061321,0.203164,-0.762334,0.171221,0.090870,0.983812,-0.154455,0.031735,0.076018,-0.056727,0.706073,17.218073,-10.977675,,,,,,
1478537199.33,0.525176,-1.388181,-2.058495,0.144995,-0.896193,0.165282,0.091049,0.983372,-0.157128,-0.014572,0.165889,-0.024238,0.706073,17.218073,-10.977675,,,,,,
1478537199.34,0.526212,-1.386721,-2.049769,0.017635,-0.635141,0.206869,0.091933,0.983106,-0.158275,-0.150847,0.072070,-0.076679,0.583797,17.177715,-11.047859,,,,,,
1478537199.35,0.532483,-1.385408,-2.038895,0.018977,-0.360784,0.229239,0.093579,0.982865,-0.158808,-0.192486,-0.016724,-0.032186,0.583797,17.177715,-11.047859,,,,,,
1478537199.36,0.536994,-1.383795,-2.032439,0.093644,-0.107363,0.147546,0.095105,0.982566,-0.159746,-0.104749,-0.073631,-0.017027,0.528739,17.168741,-11.064568,,,,,,
1478537199.37,0.534629,-1.381608,-2.035022,0.235129,0.015681,0.029772,0.095821,0.982157,-0.161819,0.002064,-0.018534,-0.046189,0.528739,17.168741,-11.064568,,,,,,
1478537199.38,0.519796,-1.379669,-2.047921,0.255407,-0.295581,-0.146197,0.094357,0.981791,-0.164875,0.093540,0.037527,0.032612,0.554127,17.135147,-11.115284,,,,,,
1478537199.39,0.504816,-1.379461,-2.060294,0.110875,-0.234533,-0.160346,0.091975,0.981751,-0.166449,0.040303,0.075973,-0.045114,0.554127,17.135147,-11.115284,,,,,,
1478537199.40,0.498331,-1.378928,-2.063195,0.044185,-0.378681,0.020187,0.091144,0.981650,-0.167501,-0.057208,0.085230,-0.047312,0.445662,17.089432,-11.190292,,,,,,
1478537199.41,0.498302,-1.378848,-2.060075,-0.036487,-0.253301,0.052473,0.091177,0.981634,-0.167573,-0.134344,0.026697,-0.039565,0.445662,17.089432,-11.190292,,,,,,
1478537199.42,0.499123,-1.379106,-2.058384,-0.027373,-0.010422,0.000673,0.091193,0.981683,-0.167276,-0.132895,0.032187,-0.025107,0.375990,17.083500,-11.201900,,,,,,
1478537199.44,0.498861,-1.379223,-2.060266,0.013725,0.188100,-0.047464,0.091094,0.981706,-0.167199,-0.077285,0.033324,-0.037834,0.375990,17.083500,-11.201900,,,,,,
1478537199.45,0.497728,-1.379216,-2.063661,0.032520,0.204331,-0.052372,0.090908,0.981705,-0.167308,-0.034435,0.035462,-0.050496,0.380736,17.087078,-11.196283,,,,,,
1478537199.46,0.497466,-1.379188,-2.065524,0.013034,0.128498,-0.019486,0.090877,0.981699,-0.167356,-0.013302,0.025518,-0.044909,0.380736,17.087078,-11.196283,,,,,,
1478537199.47,0.497510,-1.379163,-2.066264,0.008598,0.061600,-0.008609,0.090896,0.981694,-0.167374,-0.033691,0.032664,-0.031769,0.408181,17.081709,-11.203504,,,,,,
1478537199.48,0.497404,-1.379089,-2.067052,0.014823,0.071542,-0.009913,0.090913,0.981680,-0.167447,-0.043306,0.036478,-0.022799,0.414910,17.080757,-11.204711,,,,,,
1478537199.49,0.497236,-1.379047,-2.068328,0.015692,0.113693,-0.021651,0.090905,0.981672,-0.167499,-0.050149,0.035204,-0.019116,0.414910,17.080757,-11.204711,,,,,,
1478537199.50,0.497302,-1.379066,-2.069783,0.006533,0.148291,-0.024820,0.090907,0.981676,-0.167477,-0.048732,0.029173,-0.018421,0.429583,17.077637,-11.208914,,,,,,
1478537199.51,0.497473,-1.379231,-2.071057,-0.005925,0.128469,-0.029571,0.090858,0.981707,-0.167318,-0.048179,0.022000,-0.027094,0.429583,17.077637,-11.208914,,,,,,
1478537199.52,0.497377,-1.379472,-2.072285,-0.011952,0.096286,-0.030341,0.090729,0.981753,-0.167119,-0.050019,0.016767,-0.034175,0.452966,17.076910,-11.209096,,,,,,
1478537199.53,0.497235,-1.379803,-2.073189,-0.021766,0.064070,-0.029939,0.090550,0.981816,-0.166846,-0.055348,0.014735,-0.040445,0.452966,17.076910,-11.209096,,,,,,
1478537199.54,0.496647,-1.380164,-2.074256,-0.019011,0.038155,-0.034368,0.090283,0.981885,-0.166588,-0.057157,0.015674,-0.040626,0.463004,17.080669,-11.202959,,,,,,
1478537199.55,0.495413,-1.380463,-2.075782,-0.008770,0.022198,-0.041309,0.089938,0.981941,-0.166441,-0.062137,0.015739,-0.034472,0.463004,17.080669,-11.202959,,,,,,
1478537199.56,0.493889,-1.380737,-2.077526,-0.008722,0.017230,-0.038772,0.089557,0.981993,-0.166340,-0.063556,0.017702,-0.032558,0.458372,17.084888,-11.196715,,,,,,
1478537199.57,0.492386,-1.380970,-2.079235,-0.001132,0.016038,-0.038642,0.089199,0.982037,-0.166274,-0.065319,0.018299,-0.031587,0.458372,17.084888,-11.196715,,,,,,
1478537199.58,0.490501,-1.381074,-2.081332,0.012764,0.016110,-0.037216,0.088837,0.982057,-0.166351,-0.060989,0.014922,-0.032319,0.448514,17.086790,-11.194212,,,,,,
1478537199.59,0.488259,-1.380945,-2.083670,0.034383,0.001323,-0.028069,0.088523,0.982032,-0.166662,-0.063804,0.010949,-0.034480,0.448514,17.086790,-11.194212,,,,,,
1478537199.60,0.485776,-1.380595,-2.086000,0.053551,-0.022116,-0.021265,0.088270,0.981966,-0.167186,-0.056562,0.009123,-0.054540,0.438655,17.082458,-11.201209,,,,,,
1478537199.61,0.434582,-1.376693,-2.136059,0.068760,-0.024530,-0.014894,0.081212,0.981221,-0.174957,-0.045521,0.011363,-0.051300,0.438655,17.082458,-11.201209,,,,,,
1478537199.62,0.399029,-1.372815,-2.170946,0.083750,-0.003440,-0.010142,0.076419,0.980466,-0.181238,-0.035098,0.016025,-0.046606,0.293077,16.991972,-11.342702,,,,,,
1478537199.64,0.372999,-1.370250,-2.196533,0.086291,-0.003435,-0.007665,0.072592,0.979958,-0.185507,-0.031394,0.025139,-0.035364,0.199122,16.921364,-11.449788,,,,,,
1478537199.65,0.348442,-1.369009,-2.220345,0.094252,-0.045389,-0.011763,0.068430,0.979710,-0.188376,-0.037394,0.032665,-0.024957,0.199122,16.921364,-11.449788,,,,,,
1478537199.66,0.322105,-1.368308,-2.245468,0.089530,-0.083584,-0.030827,0.063663,0.979569,-0.190765,-0.045597,0.035247,-0.021836,0.043450,16.840322,-11.570291,,,,,,
1478537199.67,0.296236,-1.367857,-2.270191,0.084321,-0.069731,-0.063040,0.058837,0.979478,-0.192770,-0.046904,0.045836,-0.021479,0.043450,16.840322,-11.570291,,,,,,
1478537199.68,0.276679,-1.367205,-2.289363,0.078604,0.002113,-0.080290,0.055230,0.979347,-0.194499,-0.033380,0.052407,-0.021810,-0.149379,16.790325,-11.641848,,,,,,
1478537199.69,0.264868,-1.366380,-2.301623,0.075573,0.057787,-0.084959,0.053141,0.979180,-0.195917,-0.015604,0.052559,-0.019903,-0.149379,16.790325,-11.641848,,,,,,
1478537199.70,0.257755,-1.365562,-2.309545,0.070372,0.075032,-0.080421,0.051950,0.979013,-0.197064,-0.004678,0.045584,-0.015735,-0.251806,16.752077,-11.695059,,,,,,
1478537199.71,0.252127,-1.364834,-2.315970,0.051506,0.068582,-0.062189,0.051018,0.978865,-0.198043,-0.004417,0.023867,-0.011887,-0.251806,16.752077,-11.695059,,,,,,
1478537199.72,0.246869,-1.364296,-2.321753,0.034038,0.050790,-0.017991,0.050104,0.978755,-0.198819,-0.011393,0.009038,-0.008776,-0.277210,16.725180,-11.732923,,,,,,
1478537199.73,0.240217,-1.364032,-2.328573,0.011600,0.021964,0.011601,0.048842,0.978700,-0.199399,-0.023116,0.017485,-0.010654,-0.277210,16.725180,-11.732923,,,,,,
1478537199.74,0.241481,-1.363967,-2.327250,-0.001979,-0.010430,0.030348,0.049109,0.978687,-0.199399,-0.031684,0.028103,-0.012515,-0.310807,16.707977,-11.756563,,,,,,
1478537199.75,0.230346,-1.364169,-2.337799,0.004510,-0.027787,0.040536,0.046841,0.978728,-0.199741,-0.046902,0.030183,-0.011196,-0.310807,16.707977,-11.756563,,,,,,
1478537199.76,0.217996,-1.364324,-2.349433,0.004611,-0.037718,0.045598,0.044338,0.978760,-0.200156,-0.054470,0.029174,-0.012460,-0.351993,16.703728,-11.761440,,,,,,
1478537199.77,0.205513,-1.364163,-2.361006,0.012366,-0.057405,0.039899,0.041868,0.978727,-0.200848,-0.055250,0.021883,-0.015613,-0.351993,16.703728,-11.761440,,,,,,
1478537199.78,0.194222,-1.363600,-2.371376,0.030063,-0.059676,0.029144,0.039704,0.978612,-0.201849,-0.049027,0.021648,-0.019526,-0.454535,16.689672,-11.777868,,,,,,
1478537199.79,0.184384,-1.362660,-2.380465,0.042563,-0.045910,0.019273,0.037885,0.978418,-0.203134,-0.041043,0.019492,-0.022986,-0.500975,16.677240,-11.793581,,,,,,
1478537199.80,0.182888,-1.362458,-2.381436,0.007260,-0.061678,-0.042294,0.037617,0.978376,-0.203385,-0.148503,0.035693,0.021851,-0.500975,16.677240,-11.793581,,,,,,
1478537199.81,0.175832,-1.361983,-2.388489,0.113406,0.059806,-0.147061,0.036262,0.978278,-0.204103,-0.206871,0.023782,-0.024428,-0.548969,16.658449,-11.817979,,,,,,
1478537199.82,0.176357,-1.362318,-2.393307,-0.193523,0.634402,-0.020149,0.036312,0.978347,-0.203761,-0.170040,0.001115,0.123851,-0.548969,16.658449,-11.817979,,,,,,
1478537199.83,0.204928,-1.369484,-2.375356,-0.761703,1.200211,0.228238,0.040690,0.979805,-0.195772,-0.187907,-0.050072,-0.259978,-0.528699,16.650341,-11.830320,,,,,,
1478537199.85,0.233780,-1.374723,-2.355916,-0.493030,0.826869,0.258042,0.045131,0.980839,-0.189520,0.029484,0.033519,-0.001505,-0.528699,16.650341,-11.830320,,,,,,
1478537199.86,0.254855,-1.376353,-2.340643,-0.122550,0.500504,0.216162,0.048712,0.981155,-0.186980,0.161005,0.060120,0.062178,-0.204212,16.812363,-11.609165,,,,,,
1478537199.87,0.262958,-1.375403,-2.335595,0.098312,0.223509,0.079305,0.050468,0.980971,-0.187479,0.272195,0.044328,0.022363,-0.204212,16.812363,-11.609165,,,,,,
1478537199.88,0.261805,-1.373893,-2.334339,0.141814,-0.399403,0.067145,0.050635,0.980677,-0.188967,0.308267,0.021337,0.015658,-0.035372,16.831703,-11.582851,,,,,,
1478537199.89,0.255059,-1.371505,-2.333586,0.242336,-0.761100,0.062437,0.049950,0.980207,-0.191570,0.127159,0.034914,0.026898,-0.035372,16.831703,-11.582851,,,,,,
1478537199.90,0.244116,-1.368508,-2.337162,0.305818,-0.667317,-0.014269,0.048560,0.979609,-0.194955,0.003167,0.050954,0.038262,-0.126789,16.789225,-11.643700,,,,,,
1478537199.91,0.230721,-1.365580,-2.345296,0.298850,-0.467479,-0.106048,0.046600,0.979017,-0.198379,-0.070663,0.025881,0.000610,-0.126789,16.789225,-11.643700,,,,,,
1478537199.92,0.218595,-1.363131,-2.353998,0.256898,-0.298280,-0.109510,0.044711,0.978515,-0.201269,-0.019977,0.027466,-0.037500,-0.291649,16.715172,-11.746824,,,,,,
1478537199.93,0.210099,-1.361083,-2.360483,0.200355,-0.186405,-0.071742,0.043417,0.978091,-0.203602,0.009699,0.027799,-0.042187,-0.291649,16.715172,-11.746824,,,,,,
1478537199.94,0.205137,-1.359540,-2.363553,0.142343,-0.189679,-0.018560,0.042714,0.977768,-0.205292,-0.003087,0.024902,-0.031128,-0.394097,16.654675,-11.829472,,,,,,
1478537199.95,0.202353,-1.358429,-2.364536,0.095361,-0.159253,0.006003,0.042360,0.977535,-0.206474,-0.034044,0.030400,-0.015145,-0.394097,16.654675,-11.829472,,,,,,
1478537199.96,0.201046,-1.357520,-2.364964,0.085576,-0.054232,0.010222,0.042268,0.977343,-0.207400,-0.049195,0.039442,0.002123,-0.443711,16.621708,-11.873998,,,,,,
1478537199.97,0.201000,-1.356748,-2.365465,0.069337,0.064460,0.001851,0.042409,0.977179,-0.208141,-0.042577,0.043039,0.013011,-0.452709,16.610950,-11.888705,,,,,,
1478537199.98,0.201064,-1.356140,-2.366219,0.055334,0.075561,-0.004671,0.042541,0.977050,-0.208721,-0.021591,0.039155,0.020275,-0.452709,16.610950,-11.888705,,,,,,
1478537199.99,0.201067,-1.355765,-2.366909,0.034017,0.058120,-0.004684,0.042615,0.976970,-0.209079,-0.000745,0.036580,0.023594,-0.437657,16.594231,-11.912595,,,,,,
1478537200.00,0.200873,-1.355556,-2.367320,0.018087,0.003615,-0.005220,0.042615,0.976925,-0.209287,0.010348,0.034427,0.016081,-0.437657,16.594231,-11.912595,,,,,,
1478537200.01,0.199918,-1.355270,-2.367804,0.031300,-0.060623,-0.003945,0.042470,0.976864,-0.209602,0.009684,0.037968,0.010566,-0.429012,16.586807,-11.923241,,,,,,
1478537200.02,0.198602,-1.354908,-2.368327,0.036532,-0.080381,-0.003536,0.042264,0.976786,-0.210004,0.008547,0.031423,0.003767,-0.429012,16.586807,-11.923241,,,,,,
1478537200.03,0.197543,-1.354657,-2.368598,0.020039,-0.071862,0.000988,0.042090,0.976733,-0.210289,0.008005,0.021818,-0.007682,-0.445737,16.578684,-11.933923,,,,,,
1478537200.05,0.197403,-1.354555,-2.368179,0.005927,-0.046086,0.013840,0.042080,0.976711,-0.210393,0.007709,0.019642,-0.014537,-0.445737,16.578684,-11.933923,,,,,,
1478537200.06,0.197853,-1.354552,-2.367354,-0.004305,-0.031347,0.018349,0.042176,0.976710,-0.210377,0.007354,0.028112,-0.003154,-0.460101,16.574669,-11.938953,,,,,,
1478537200.07,0.198677,-1.354547,-2.366166,-0.004262,-0.035119,0.025772,0.042350,0.976709,-0.210347,0.002541,0.024268,-0.000636,-0.460101,16.574669,-11.938953,,,,,,
1478537200.08,0.199858,-1.354540,-2.364512,-0.006700,-0.043854,0.033243,0.042599,0.976708,-0.210303,-0.004971,0.019707,-0.004708,-0.461312,16.575783,-11.937359,,,,,,
1478537200.09,0.201022,-1.354564,-2.362794,-0.010455,-0.047597,0.034478,0.042840,0.976713,-0.210231,-0.014138,0.019778,-0.003301,-0.461312,16.575783,-11.937359,,,,,,
1478537200.10,0.202303,-1.354535,-2.361104,-0.003075,-0.025301,0.035435,0.043115,0.976707,-0.210203,-0.019799,0.020715,-0.008135,-0.460935,16.578024,-11.934261,,,,,,
1478537200.11,0.198324,-1.354562,-2.364948,-0.003407,0.011793,0.036024,0.042273,0.976712,-0.210348,-0.020788,0.027179,-0.009180,-0.460935,16.578024,-11.934261,,,,,,
1478537200.12,0.200187,-1.354485,-2.363255,0.001567,0.020480,0.035950,0.042679,0.976696,-0.210342,-0.021668,0.032459,-0.009369,-0.475525,16.576694,-11.935535,,,,,,
1478537200.13,0.195605,-1.354721,-2.367799,0.007956,0.011902,0.031274,0.041670,0.976746,-0.210309,-0.025023,0.032592,-0.004504,-0.466877,16.576832,-11.935688,,,,,,
1478537200.14,0.189698,-1.355221,-2.373571,0.004238,0.002111,0.016661,0.040335,0.976853,-0.210072,-0.029837,0.034240,-0.001445,-0.466877,16.576832,-11.935688,,,,,,
1478537200.15,0.183957,-1.355880,-2.379127,0.001749,-0.002798,0.010569,0.039011,0.976994,-0.209668,-0.028391,0.036586,0.001919,-0.510110,16.579208,-11.930616,,,,,,
1478537200.16,0.179273,-1.356349,-2.383781,0.004122,0.013347,0.004193,0.037947,0.977094,-0.209397,-0.023069,0.028506,0.000992,-0.510110,16.579208,-11.930616,,,,,,
1478537200.17,0.176291,-1.356689,-2.386822,-0.007237,0.013218,0.011386,0.037264,0.977166,-0.209182,-0.017336,0.018668,0.000533,-0.554419,16.586414,-11.918617,,,,,,
1478537200.18,0.176620,-1.356824,-2.386444,-0.020926,-0.009147,0.014018,0.037309,0.977195,-0.209040,-0.001390,0.021111,-0.006506,-0.554419,16.586414,-11.918617,,,,,,
1478537200.19,0.178058,-1.356891,-2.384540,-0.014193,-0.051399,0.043037,0.037598,0.977209,-0.208921,-0.000855,0.009134,-0.006899,-0.565666,16.590437,-11.912488,,,,,,
1478537200.20,0.179853,-1.357090,-2.381995,-0.020343,-0.067649,0.059166,0.037939,0.977252,-0.208663,-0.001379,0.019742,-0.002473,-0.565666,16.590437,-11.912488,,,,,,
1478537200.21,0.181527,-1.357309,-2.379534,-0.012799,-0.062720,0.066549,0.038249,0.977298,-0.208388,-0.004695,0.017407,-0.000276,-0.564305,16.596039,-11.904746,,,,,,
1478537200.22,0.181926,-1.357149,-2.378544,-0.005453,-0.036713,0.067440,0.038361,0.977264,-0.208526,-0.011597,0.004883,-0.005982,-0.564305,16.596039,-11.904746,,,,,,
1478537200.23,0.181297,-1.356703,-2.378866,-0.000641,-0.009494,0.069499,0.038308,0.977169,-0.208980,-0.018655,-0.000775,-0.012013,-0.567998,16.598705,-11.900850,,,,,,
1478537200.24,0.181234,-1.356319,-2.378789,0.006806,0.005393,0.069352,0.038362,0.977088,-0.209351,-0.016847,0.028375,-0.014892,-0.567998,16.598705,-11.900850,,,,,,
1478537200.26,0.182378,-1.355873,-2.377502,0.015775,-0.008180,0.072161,0.038681,0.976993,-0.209735,-0.010574,0.023480,-0.011060,-0.571749,16.588926,-11.914299,,,,,,
1478537200.27,0.184293,-1.355665,-2.375367,0.020815,-0.004575,0.088115,0.039120,0.976948,-0.209861,-0.010845,0.035289,-0.005990,-0.567294,16.584492,-11.920686,,,,,,
1478537200.28,0.188205,-1.354058,-2.371330,0.039742,0.002678,0.121380,0.040234,0.976604,-0.211248,-0.002072,-0.019771,-0.027079,-0.567294,16.584492,-11.920686,,,,,,
1478537200.29,0.192682,-1.354792,-2.365966,0.016570,-0.085514,0.150740,0.041042,0.976762,-0.210362,-0.017940,0.054504,0.030415,-0.542616,16.567007,-11.946119,,,,,,
1478537200.30,0.191280,-1.355454,-2.366634,-0.019376,-0.023759,0.134452,0.040624,0.976903,-0.209784,-0.053823,0.054331,0.002173,-0.542616,16.567007,-11.946119,,,,,,
1478537200.31,0.187431,-1.355481,-2.370167,0.001755,0.012370,0.118192,0.039812,0.976909,-0.209913,-0.064851,0.023274,-0.009127,-0.548645,16.586035,-11.919409,,,,,,
1478537200.32,0.193153,-1.355254,-2.364189,-0.004226,-0.023607,0.127298,0.041055,0.976861,-0.209900,-0.060693,0.020408,-0.007416,-0.548645,16.586035,-11.919409,,,,,,
1478537200.33,0.198726,-1.355094,-2.357577,-0.014865,-0.102910,0.138295,0.042255,0.976826,-0.209821,-0.070560,0.015910,-0.000949,-0.545643,16.585188,-11.920727,,,,,,
1478537200.34,0.205645,-1.354562,-2.348758,0.016235,-0.182331,0.192822,0.043811,0.976712,-0.210033,-0.048435,-0.060987,-0.001820,-0.545643,16.585188,-11.920727,,,,,,
1478537200.35,0.211592,-1.354501,-2.340533,-0.039282,-0.194695,0.152983,0.045072,0.976699,-0.209826,-0.101743,0.058793,0.056491,-0.520398,16.586699,-11.919753,,,,,,
1478537200.36,0.215090,-1.354415,-2.335207,-0.000615,-0.148205,0.093886,0.045824,0.976681,-0.209750,-0.116030,0.080875,0.061770,-0.520398,16.586699,-11.919753,,,,,,
1478537200.37,0.203604,-1.356642,-2.345418,0.051644,-0.068272,0.038086,0.042972,0.977156,-0.208132,-0.093112,0.044404,0.054659,-0.517852,16.593714,-11.910096,,,,,,
1478537200.38,0.203656,-1.355885,-2.345424,0.073486,0.027312,0.011032,0.043132,0.976995,-0.208854,-0.076137,0.021021,0.037375,-0.517852,16.593714,-11.910096,,,,,,
1478537200.39,0.204011,-1.355057,-2.345694,0.078193,0.065671,0.011679,0.043370,0.976818,-0.209630,-0.050634,0.008411,0.032629,-0.575719,16.604086,-11.892974,,,,,,
1478537200.40,0.204870,-1.354182,-2.345629,0.084360,0.078081,0.022412,0.043724,0.976631,-0.210430,-0.023476,-0.012306,0.023601,-0.575719,16.604086,-11.892974,,,,,,
1478537200.41,0.207948,-1.352966,-2.343294,0.116082,0.072676,0.099001,0.044617,0.976369,-0.211456,0.024551,-0.107793,-0.007797,-0.553868,16.584291,-11.921596,,,,,,
1478537200.42,0.218290,-1.352203,-2.333169,0.121786,0.013736,0.199424,0.046963,0.976204,-0.211710,0.006809,-0.022941,0.037363,-0.553868,16.584291,-11.921596,,,,,,
1478537200.43,0.226890,-1.350958,-2.323408,0.062446,-0.125390,0.230350,0.049055,0.975933,-0.212483,-0.006895,0.042851,0.042622,-0.488421,16.569538,-11.944948,,,,,,
1478537200.44,0.235052,-1.349746,-2.312846,0.062070,-0.221959,0.243013,0.051063,0.975668,-0.213225,-0.035087,0.065973,0.097304,-0.460651,16.561735,-11.956865,,,,,,
1478537200.46,0.242952,-1.348531,-2.302322,0.058243,-0.218240,0.239216,0.053031,0.975401,-0.213966,-0.069190,0.084917,0.136161,-0.460651,16.561735,-11.956865,,,,,,
1478537200.47,0.251038,-1.347457,-2.292092,0.042606,-0.166323,0.230755,0.055020,0.975163,-0.214545,-0.095562,0.105891,0.144110,-0.430838,16.548628,-11.976111,,,,,,
1478537200.48,0.258763,-1.346656,-2.282737,0.014403,-0.124219,0.203881,0.056875,0.974985,-0.214869,-0.121054,0.137731,0.155512,-0.430838,16.548628,-11.976111,,,,,,
1478537200.49,0.266131,-1.346276,-2.274034,-0.023721,-0.101994,0.180879,0.058554,0.974901,-0.214800,-0.126150,0.126066,0.167636,-0.393056,16.541677,-11.987007,,,,,,
1478537200.50,0.272682,-1.346441,-2.266321,-0.070619,-0.089580,0.141973,0.059917,0.974938,-0.214257,-0.129161,0.115867,0.188440,-0.393056,16.541677,-11.987007,,,,,,
1478537200.51,0.277395,-1.347257,-2.260531,-0.117444,-0.088111,0.081176,0.060708,0.975119,-0.213207,-0.123009,0.127679,0.219631,-0.358833,16.552029,-11.973783,,,,,,
1478537200.52,0.279276,-1.348683,-2.257535,-0.160346,-0.103788,0.003554,0.060725,0.975434,-0.211756,-0.108806,0.139266,0.234507,-0.358833,16.552029,-11.973783,,,,,,
1478537200.53,0.277733,-1.350946,-2.257655,-0.223202,-0.149184,-0.083665,0.059793,0.975930,-0.209727,-0.095697,0.157447,0.252055,-0.361542,16.584599,-11.928551,,,,,,
1478537200.54,0.273037,-1.354327,-2.260187,-0.323564,-0.235742,-0.156014,0.057918,0.976662,-0.206827,-0.093196,0.170601,0.274545,-0.361542,16.584599,-11.928551,,,,,,
1478537200.55,0.265121,-1.359314,-2.264778,-0.471611,-0.358387,-0.235800,0.055002,0.977721,-0.202575,-0.110544,0.180421,0.303955,-0.439721,16.646414,-11.839485,,,,,,
1478537200.56,0.253573,-1.366338,-2.271258,-0.667032,-0.550565,-0.316323,0.050935,0.979171,-0.196544,-0.142609,0.203370,0.366329,-0.439721,16.646414,-11.839485,,,,,,
1478537200.57,0.237359,-1.376231,-2.280265,-0.943356,-0.739322,-0.420148,0.045461,0.981132,-0.187919,-0.178960,0.239083,0.427223,-0.630712,16.772694,-11.651134,,,,,,
1478537200.58,0.216068,-1.389466,-2.293193,-1.255846,-0.841621,-0.536993,0.038663,0.983605,-0.176145,-0.232114,0.240226,0.478116,-0.785758,16.875790,-11.491745,,,,,,
1478537200.59,0.186519,-1.406319,-2.313851,-1.584188,-0.871975,-0.690848,0.030363,0.986504,-0.160896,-0.268721,0.220161,0.518746,-0.785758,16.875790,-11.491745,,,,,,
1478537200.60,0.143635,-1.426654,-2.349074,-1.902793,-0.725196,-0.872082,0.020561,0.989629,-0.142164,-0.270958,0.224497,0.527281,-1.193398,17.180250,-10.994757,,,,,,
1478537200.61,0.081512,-1.449864,-2.405948,-2.174190,-0.479867,-0.974578,0.009823,0.992697,-0.120238,-0.210766,0.257166,0.520582,-1.193398,17.180250,-10.994757,,,,,,
1478537200.62,-0.005794,-1.474378,-2.490736,-2.325454,-0.232384,-0.953957,-0.000558,0.995355,-0.096268,-0.121070,0.346213,0.468536,-1.667024,17.592905,-10.255759,,,,,,
1478537200.63,-0.146240,-1.498990,-2.631232,-2.458238,0.065980,-0.941288,-0.010455,0.997423,-0.070979,-0.076414,0.456206,0.435603,-1.667024,17.592905,-10.255759,,,,,,
1478537200.64,-0.434400,-1.522825,-2.929106,-2.661516,1.170638,-0.977587,-0.020182,0.998850,-0.043499,-0.122732,0.435095,0.334240,-2.057930,18.041265,-9.367372,,,,,,
1478537200.65,-1.066076,-1.537509,2.713154,-2.590794,0.629569,-0.850920,-0.029131,0.999446,-0.016094,0.063082,0.375035,0.051677,-2.057930,18.041265,-9.367372,,,,,,
1478537200.67,-1.816110,-1.530035,1.959347,-2.470177,0.250126,-1.081932,-0.039530,0.999169,0.009897,0.110636,0.391089,-0.606439,-2.254100,18.490635,-8.395556,,,,,,
1478537200.68,-2.196916,-1.504833,1.581569,-2.868019,-0.636468,-1.375643,-0.053412,0.997825,0.038627,0.462912,0.196633,-0.938514,-2.254100,18.490635,-8.395556,,,,,,
1478537200.69,-2.433277,-1.472082,1.366694,-3.434285,-2.649881,-1.033405,-0.064115,0.995132,0.074848,0.469800,-0.005782,-0.859272,-2.710207,18.862185,-7.371752,,,,,,
1478537200.70,-2.590533,-1.439420,1.249065,-3.139182,-4.097434,-0.745928,-0.068590,0.991382,0.111607,0.184908,-0.022083,-0.326924,-2.710207,18.862185,-7.371752,,,,,,
1478537200.71,-2.675802,-1.410901,1.203940,-2.524343,-3.648074,-0.799827,-0.071508,0.987244,0.142253,-0.144541,0.098953,0.411122,-3.504673,19.259872,-5.851881,,,,,,
1478537200.72,-2.718830,-1.386042,1.188989,-2.178360,-2.369989,-0.772255,-0.075371,0.982982,0.167531,-0.295220,0.165044,0.442622,-3.504673,19.259872,-5.851881,,,,,,
1478537200.73,-2.754030,-1.362270,1.172502,-2.234507,-1.716793,-0.548613,-0.078239,0.978337,0.191665,-0.292931,0.167644,0.213090,-4.186507,19.465389,-4.587124,,,,,,
1478537200.74,-2.792466,-1.337671,1.152055,-2.351281,-1.777900,-0.425396,-0.079026,0.972949,0.217083,-0.219466,0.135465,0.107060,-4.186507,19.465389,-4.587124,,,,,,
1478537200.75,-2.823710,-1.313713,1.137971,-2.216316,-1.619807,-0.451871,-0.079471,0.967136,0.241522,-0.108823,0.061963,-0.033148,-4.555079,19.609516,-3.491130,,,,,,
1478537200.76,-2.846825,-1.291224,1.130403,-2.064756,-1.479046,-0.464324,-0.080167,0.961174,0.264043,-0.007404,-0.029457,-0.128560,-4.702236,19.664597,-2.943220,,,,,,
1478537200.77,-2.866869,-1.269817,1.125085,-1.975797,-1.392326,-0.419125,-0.080423,0.955047,0.285339,0.057473,-0.144011,-0.186721,-4.702236,19.664597,-2.943220,,,,,,
1478537200.78,-2.887087,-1.249177,1.119505,-1.923387,-1.449608,-0.335229,-0.079585,0.948725,0.305921,0.057795,-0.207773,-0.231901,-4.963088,19.724268,-1.947047,,,,,,
1478537200.79,-2.908719,-1.229477,1.114461,-1.834251,-1.663346,-0.295994,-0.077247,0.942314,0.325695,-0.000344,-0.241539,-0.243878,-4.963088,19.724268,-1.947047,,,,,,
1478537200.80,-2.931869,-1.210566,1.110732,-1.762209,-1.943881,-0.266915,-0.073385,0.935816,0.344767,-0.085307,-0.225183,-0.210016,-5.145746,19.748245,-0.998999,,,,,,
1478537200.81,-2.956749,-1.192750,1.107241,-1.658736,-2.061393,-0.189851,-0.067839,0.929387,0.362818,-0.053682,-0.237905,-0.122477,-5.145746,19.748245,-0.998999,,,,,,
1478537200.82,-2.980775,-1.176120,1.103770,-1.549579,-1.974472,-0.154175,-0.061570,0.923121,0.379548,-0.004592,-0.211421,-0.090501,-5.268988,19.740911,-0.064017,,,,,,
1478537200.83,-3.003362,-1.160537,1.101782,-1.456315,-1.949288,-0.140989,-0.054958,0.917017,0.395043,0.092021,-0.269572,-0.046868,-5.268988,19.740911,-0.064017,,,,,,
1478537200.84,-3.023601,-1.145888,1.100129,-1.367401,-1.719024,-0.106799,-0.048528,0.911077,0.409371,0.166692,-0.335775,-0.040474,-5.315300,19.712770,0.790052,,,,,,
1478537200.85,-3.040776,-1.132558,1.098820,-1.233302,-1.457519,-0.078616,-0.042709,0.905501,0.422190,0.214767,-0.388472,-0.050502,-5.315300,19.712770,0.790052,,,,,,
1478537200.87,-3.056060,-1.120543,1.097174,-1.118744,-1.266838,-0.024991,-0.037178,0.900337,0.433603,0.211128,-0.413230,-0.055475,-5.316983,19.669144,1.524594,,,,,,
1478537200.88,-3.071256,-1.109306,1.093502,-1.068413,-1.087106,0.107612,-0.031294,0.895390,0.444182,0.193815,-0.423680,-0.118056,-5.316983,19.669144,1.524594,,,,,,
1478537200.89,-3.084951,-1.098744,1.090656,-0.987756,-1.076122,0.036230,-0.025742,0.890637,0.453986,0.103409,-0.342251,-0.133750,-5.263945,19.628244,2.119646,,,,,,
1478537200.90,-3.097665,-1.088945,1.088854,-0.926164,-1.040036,0.053680,-0.020351,0.886138,0.462974,0.098857,-0.370941,-0.049995,-5.263945,19.628244,2.119646,,,,,,
1478537200.91,-3.108410,-1.079596,1.087920,-0.871605,-0.939956,-0.042885,-0.015649,0.881767,0.471425,-0.086433,-0.283073,-0.059560,-5.192434,19.584549,2.637043,,,,,,
1478537200.92,-3.116020,-1.071155,1.089575,-0.776757,-0.817832,-0.085277,-0.012251,0.877755,0.478954,-0.050569,-0.317955,0.001026,-5.163624,19.559164,2.871591,,,,,,
1478537200.93,-3.121987,-1.063441,1.092036,-0.720328,-0.781059,-0.152538,-0.009525,0.874033,0.485774,-0.131451,-0.282816,0.020452,-5.163624,19.559164,2.871591,,,,,,
1478537200.94,-3.126306,-1.056242,1.095716,-0.665628,-0.688888,-0.191324,-0.007523,0.870512,0.492089,-0.061004,-0.283552,0.044471,-5.157593,19.497326,3.274660,,,,,,
1478537200.95,-3.129260,-1.049960,1.099993,-0.570264,-0.621338,-0.214390,-0.006137,0.867403,0.497568,-0.015515,-0.283724,0.017203,-5.157593,19.497326,3.274660,,,,,,
1478537200.96,-3.130895,-1.044822,1.105246,-0.454491,-0.581731,-0.282069,-0.005371,0.864835,0.502028,0.134582,-0.292356,0.101763,-5.189059,19.429789,3.609281,,,,,,
1478537200.97,-3.131642,-1.041146,1.111547,-0.311600,-0.599367,-0.288294,-0.005027,0.862984,0.505206,0.081794,-0.358376,0.197690,-5.189059,19.429789,3.609281,,,,,,
1478537200.98,-3.135855,-1.039029,1.115499,-0.163500,-0.754252,-0.147405,-0.002909,0.861912,0.507049,-0.036687,-0.326436,0.307786,-5.257207,19.366415,3.843654,,,,,,
1478537200.99,-3.140685,-1.038588,1.119580,-0.005052,-0.823286,-0.206501,-0.000461,0.861689,0.507437,-0.068280,-0.233515,0.405969,-5.257207,19.366415,3.843654,,,,,,
1478537201.00,3.138258,-1.039295,1.123946,0.082555,-0.733665,-0.212882,0.001690,0.862047,0.506825,-0.069286,-0.221682,0.413661,-5.273735,19.335009,3.976818,,,,,,
1478537201.01,3.135178,-1.040481,1.128583,0.119746,-0.657863,-0.229568,0.003245,0.862648,0.505795,-0.026087,-0.203773,0.400959,-5.273735,19.335009,3.976818,,,,,,
1478537201.02,3.133210,-1.042209,1.134008,0.181267,-0.622483,-0.274656,0.004228,0.863520,0.504296,0.007384,-0.217707,0.363135,-5.301676,19.318378,4.020243,,,,,,
1478537201.03,3.132556,-1.045073,1.140773,0.301162,-0.619936,-0.344103,0.004535,0.864961,0.501818,0.036526,-0.229646,0.299680,-5.301676,19.318378,4.020243,,,,,,
1478537201.04,3.132515,-1.049246,1.148602,0.422770,-0.663381,-0.384540,0.004523,0.867048,0.498204,0.099542,-0.256528,0.235240,-5.368203,19.303656,4.002651,,,,,,
1478537201.05,3.131668,-1.054671,1.156557,0.547554,-0.771569,-0.371100,0.004898,0.869738,0.493490,0.129425,-0.287539,0.173457,-5.368203,19.303656,4.002651,,,,,,
1478537201.06,3.127629,-1.061643,1.162736,0.702129,-0.948408,-0.261635,0.006806,0.873158,0.487390,0.127059,-0.314442,0.250494,-5.463981,19.298237,3.897807,,,,,,
1478537201.08,3.117935,-1.070568,1.165764,0.887020,-1.259010,-0.106548,0.011346,0.877473,0.479492,0.199058,-0.298738,0.483826,-5.487744,19.307936,3.815527,,,,,,
1478537201.09,3.102094,-1.079737,1.166156,0.851078,-1.607242,-0.045999,0.018621,0.881834,0.471192,0.253580,-0.168257,0.835204,-5.487744,19.307936,3.815527,,,,,,
1478537201.10,3.091114,-1.086932,1.168212,0.598741,-0.954901,-0.152637,0.023473,0.885204,0.464610,0.382518,0.062962,0.585774,-5.422668,19.363464,3.622271,,,,,,
1478537201.11,3.095214,-1.091735,1.170055,0.429278,0.619996,-0.055345,0.021370,0.887428,0.460451,1.156776,1.167122,-0.169542,-5.422668,19.363464,3.622271,,,,,,
1478537201.12,3.105733,-1.094016,1.168528,0.109770,1.187190,0.060472,0.016453,0.888477,0.458626,0.985286,1.589352,0.651009,-5.431334,19.392908,3.447558,,,,,,
1478537201.13,3.115328,-1.092278,1.169403,-0.213991,0.653282,-0.062740,0.012093,0.887678,0.460306,0.541695,1.408556,0.577216,-5.431334,19.392908,3.447558,,,,,,
1478537201.14,3.114645,-1.092578,1.171648,0.177076,-0.553538,-0.095593,0.012400,0.887816,0.460031,0.186178,0.396852,-0.298029,-5.495950,19.396317,3.323760,,,,,,
1478537201.15,3.109661,-1.099806,1.172852,0.838597,-0.367932,-0.075685,0.014487,0.891119,0.453538,-0.151374,-0.302283,-0.667451,-5.495950,19.396317,3.323760,,,,,,
1478537201.16,3.123396,-1.113495,1.176747,1.448621,1.440175,-0.238442,0.008034,0.897247,0.441456,0.052269,-0.476501,-0.762607,-5.502172,19.410938,3.226677,,,,,,
1478537201.17,-3.127018,-1.132382,1.183465,1.894339,2.853124,-0.293879,-0.006187,0.905426,0.424460,0.330314,-0.532287,-0.825857,-5.502172,19.410938,3.226677,,,,,,
1478537201.18,-3.081781,-1.154662,1.194335,2.207134,3.456593,-0.360873,-0.024163,0.914658,0.403505,0.478356,-0.477632,-0.866563,-5.702103,19.474571,2.386830,,,,,,
1478537201.19,-3.032189,-1.179359,1.209252,2.442888,3.368901,-0.352310,-0.041656,0.924362,0.379236,0.397598,-0.215103,-0.653498,-5.702103,19.474571,2.386830,,,,,,
1478537201.20,-2.980998,-1.205329,1.227632,2.565642,3.210916,-0.301266,-0.057148,0.933957,0.352787,0.112720,-0.028653,-0.505329,-5.969983,19.512554,1.043746,,,,,,
1478537201.21,-2.921416,-1.232266,1.254956,2.731935,3.241540,-0.440424,-0.072532,0.943244,0.324084,-0.257104,0.163995,-0.572787,-6.056336,19.511259,0.318573,,,,,,
1478537201.22,-2.850575,-1.259503,1.293984,2.804122,3.217458,-0.465958,-0.087883,0.951938,0.293411,-0.401298,0.304654,-0.561966,-6.056336,19.511259,0.318573,,,,,,
1478537201.23,-2.779374,-1.285919,1.335107,2.727334,2.941595,-0.218345,-0.099586,0.959696,0.262804,-0.404549,0.394460,-0.521120,-6.207777,19.427832,-1.221774,,,,,,
1478537201.24,-2.712648,-1.311473,1.375870,2.612914,2.497278,0.034020,-0.106651,0.966564,0.233196,-0.360406,0.432469,-0.409557,-6.207777,19.427832,-1.221774,,,,,,
1478537201.25,-2.646296,-1.335691,1.420091,2.494740,2.165690,0.115178,-0.110717,0.972490,0.204952,-0.278336,0.323698,-0.304530,-6.155241,19.296635,-2.687519,,,,,,
1478537201.26,-2.573750,-1.358305,1.473126,2.393400,1.918888,0.126467,-0.113423,0.977509,0.177799,0.027394,-0.085754,-0.261020,-6.155241,19.296635,-2.687519,,,,,,
1478537201.28,-2.492913,-1.379165,1.536552,2.301620,1.733891,0.147888,-0.115064,0.981695,0.151775,0.105741,-0.236700,-0.275706,-5.961926,19.138569,-3.954817,,,,,,
1478537201.29,-2.400050,-1.399047,1.614728,2.323351,1.431877,0.194999,-0.115435,0.985287,0.126031,0.105013,-0.300107,-0.252236,-5.961926,19.138569,-3.954817,,,,,,
1478537201.30,-2.291426,-1.418439,1.711920,2.358788,1.159109,0.303137,-0.114037,0.988416,0.100146,0.067681,-0.311002,-0.194262,-5.742078,18.937828,-5.084988,,,,,,
1478537201.31,-2.158731,-1.437831,1.833567,2.452308,1.183794,0.521153,-0.110313,0.991173,0.073531,0.065407,-0.287178,-0.135986,-5.742078,18.937828,-5.084988,,,,,,
1478537201.32,-1.986674,-1.457117,1.992066,2.517937,1.503628,0.768124,-0.103766,0.993545,0.045827,0.038153,-0.212875,-0.102254,-5.456686,18.698017,-6.170787,,,,,,
1478537201.33,-1.760666,-1.473581,2.200337,2.409817,1.882855,0.887713,-0.095318,0.995278,0.018319,-0.001057,-0.130700,-0.095086,-5.456686,18.698017,-6.170787,,,,,,
1478537201.34,-1.480631,-1.484379,2.460679,2.282759,1.967270,0.905303,-0.085959,0.996268,-0.007772,-0.005822,-0.076179,-0.068995,-4.920921,18.433113,-7.312648,,,,,,
1478537201.35,-1.174222,-1.487959,2.747765,2.102412,1.930618,0.870204,-0.076321,0.996571,-0.031960,0.008587,-0.046772,-0.019157,-4.920921,18.433113,-7.312648,,,,,,
1478537201.36,-0.888445,-1.485418,3.015723,1.906183,1.704043,0.907990,-0.066181,0.996357,-0.053776,-0.000866,-0.064274,0.004185,-4.254953,18.151485,-8.359961,,,,,,
1478537201.37,-0.644504,-1.478982,-3.037216,1.742113,1.279410,0.991282,-0.055085,0.995788,-0.073293,-0.032577,-0.059860,0.024800,-3.924541,18.013380,-8.808296,,,,,,
1478537201.38,-0.443842,-1.469730,-2.846220,1.625394,0.924466,1.056911,-0.043325,0.994897,-0.091118,-0.080942,-0.042657,0.062432,-3.924541,18.013380,-8.808296,,,,,,
1478537201.39,-0.282153,-1.458203,-2.692111,1.564813,0.780541,1.069504,-0.031283,0.993668,-0.107913,-0.128706,-0.017212,0.117389,-3.316070,17.758362,-9.545372,,,,,,
1478537201.40,-0.154240,-1.444746,-2.571714,1.532937,0.810224,1.046467,-0.019314,0.992066,-0.124225,-0.155109,-0.015031,0.142886,-3.316070,17.758362,-9.545372,,,,,,
1478537201.41,-0.053937,-1.430360,-2.479425,1.458042,0.841089,1.009142,-0.007546,0.990155,-0.139772,-0.204643,0.012622,0.165193,-2.756237,17.502865,-10.174614,,,,,,
1478537201.42,0.024422,-1.415746,-2.409028,1.391146,0.826402,0.943422,0.003771,0.988004,-0.154383,-0.233156,0.061755,0.149836,-2.756237,17.502865,-10.174614,,,,,,
1478537201.43,0.081208,-1.400761,-2.359812,1.383966,0.760901,0.787437,0.013727,0.985579,-0.168660,-0.264566,0.109316,0.116215,-2.210486,17.237450,-10.744954,,,,,,
1478537201.44,0.117082,-1.385373,-2.330829,1.416021,0.680000,0.579542,0.021536,0.982858,-0.183101,-0.268210,0.108466,0.102397,-2.210486,17.237450,-10.744954,,,,,,
1478537201.45,0.138564,-1.369838,-2.316192,1.432204,0.683973,0.414138,0.027570,0.979876,-0.197695,-0.257306,0.051771,0.102770,-1.776389,16.944977,-11.277505,,,,,,
1478537201.46,0.150306,-1.354359,-2.311878,1.450561,0.728659,0.261568,0.032157,0.976669,-0.212330,-0.218391,-0.006988,0.110813,-1.776389,16.944977,-11.277505,,,,,,
1478537201.47,0.158063,-1.338921,-2.312303,1.451216,0.789663,0.213942,0.036172,0.973237,-0.226938,-0.170923,-0.005494,0.150339,-1.475005,16.608793,-11.808568,,,,,,
1478537201.49,0.164949,-1.324591,-2.313903,1.310581,0.831187,0.175644,0.040020,0.969844,-0.240417,-0.095669,-0.003108,0.220199,-1.475005,16.608793,-11.808568,,,,,,
1478537201.50,0.174962,-1.311690,-2.313420,1.177404,0.900318,0.241236,0.044600,0.966619,-0.252305,-0.056837,-0.017370,0.217637,-1.205337,16.258919,-12.315220,,,,,,
1478537201.51,0.186002,-1.299229,-2.310075,1.155357,0.693085,0.309418,0.049606,0.963352,-0.263615,0.001678,-0.016559,0.267246,-1.205337,16.258919,-12.315220,,,,,,
1478537201.52,0.197538,-1.285651,-2.305623,1.284139,0.709352,0.378457,0.055206,0.959621,-0.275826,0.020371,-0.021938,0.267098,-0.901140,15.953953,-12.733000,,,,,,
1478537201.53,0.210472,-1.270374,-2.300536,1.423819,0.777642,0.445549,0.061825,0.955212,-0.289393,0.000218,-0.006878,0.219111,-0.747859,15.788926,-12.946831,,,,,,
1478537201.54,0.222708,-1.254598,-2.296228,1.435254,0.769124,0.437273,0.068681,0.950424,-0.303276,-0.049409,0.036087,0.183479,-0.747859,15.788926,-12.946831,,,,,,
1478537201.55,0.233017,-1.239313,-2.293884,1.385859,0.775515,0.377582,0.075150,0.945561,-0.316650,-0.108139,0.080120,0.158020,-0.390876,15.401380,-13.420679,,,,,,
1478537201.56,0.241483,-1.224972,-2.294721,1.311068,0.929367,0.264751,0.081063,0.940796,-0.329137,-0.213372,0.186538,0.221669,-0.390876,15.401380,-13.420679,,,,,,
1478537201.57,0.248729,-1.212054,-2.299279,1.197781,1.145114,0.117205,0.086430,0.936339,-0.340292,-0.193562,0.189714,0.233740,-0.043314,15.011166,-13.861204,,,,,,
1478537201.58,0.255364,-1.200764,-2.305616,1.053272,1.191822,0.048102,0.091351,0.932316,-0.349918,-0.142559,0.113247,0.257816,-0.043314,15.011166,-13.861204,,,,,,
1478537201.59,0.262067,-1.191140,-2.310973,0.896516,1.067098,0.061435,0.096014,0.928792,-0.357947,-0.147223,0.116771,0.265845,-0.043314,15.011166,-13.861204,,,,,,
1478537201.60,0.267994,-1.182531,-2.314730,0.810079,0.851139,0.092041,0.100248,0.925567,-0.365070,-0.127470,0.029297,0.222095,0.503595,14.527824,-14.358225,,,,,,
1478537201.61,0.274810,-1.174280,-2.317560,0.776439,0.942279,0.112093,0.104803,0.922412,-0.371716,-0.144262,-0.015201,0.237331,0.503595,14.527824,-14.358225,,,,,,
1478537201.62,0.284734,-1.166014,-2.319555,0.780720,1.175547,0.169540,0.110625,0.919188,-0.377962,-0.160689,0.057420,0.296465,0.806093,14.281590,-14.589598,,,,,,
1478537201.63,0.299439,-1.157296,-2.317548,0.751418,1.228225,0.353422,0.118530,0.915720,-0.383938,-0.234313,0.394293,0.237865,1.000127,14.160728,-14.695014,,,,,,
1478537201.64,0.317789,-1.149556,-2.312487,0.605367,1.324460,0.422050,0.127766,0.912583,-0.388419,-0.243549,0.397430,0.242346,1.000127,14.160728,-14.695014,,,,,,
1478537201.65,0.337178,-1.142893,-2.305787,0.492577,1.230688,0.462477,0.137280,0.909838,-0.391598,-0.239087,0.514509,0.305508,1.499755,13.931322,-14.870739,,,,,,
1478537201.66,0.356150,-1.136804,-2.298626,0.439890,1.189592,0.458731,0.146614,0.907294,-0.394108,-0.199959,0.611871,0.458272,1.499755,13.931322,-14.870739,,,,,,
1478537201.67,0.375164,-1.131138,-2.292275,0.397311,1.283631,0.422188,0.155962,0.904897,-0.396027,-0.120729,0.647288,0.570328,2.017404,13.763166,-14.965802,,,,,,
1478537201.69,0.394862,-1.126734,-2.284999,0.217293,1.218066,0.442772,0.165263,0.903014,-0.396552,-0.107142,0.630998,0.604224,2.017404,13.763166,-14.965802,,,,,,
1478537201.70,0.415389,-1.125255,-2.274609,-0.136960,0.999569,0.436440,0.173907,0.902378,-0.394298,-0.261324,0.581494,0.550045,2.537112,13.633924,-15.004969,,,,,,
1478537201.71,0.433445,-1.128076,-2.263549,-0.522214,0.689822,0.231290,0.179928,0.903590,-0.388783,-0.579906,0.685629,0.449970,2.537112,13.633924,-15.004969,,,,,,
1478537201.72,0.445872,-1.135163,-2.255912,-0.811251,0.480566,-0.089455,0.181979,0.906603,-0.380729,-0.828661,0.831098,0.452903,2.931877,13.686064,-14.885082,,,,,,
1478537201.73,0.452809,-1.147169,-2.252473,-1.193071,0.324550,-0.483572,0.179840,0.911604,-0.369643,-0.886871,0.916842,0.580412,2.931877,13.686064,-14.885082,,,,,,
1478537201.74,0.453664,-1.166721,-2.254055,-1.817627,0.175478,-0.994145,0.172311,0.919466,-0.353399,-0.852533,0.949949,0.697836,3.013943,13.981524,-14.591199,,,,,,
1478537201.75,0.451729,-1.195435,-2.255329,-2.648466,-0.181936,-1.290776,0.160033,0.930375,-0.329836,-0.773040,0.834624,0.642992,3.013943,13.981524,-14.591199,,,,,,
1478537201.76,0.449085,-1.232956,-2.251744,-3.456117,-0.716829,-1.495771,0.143897,0.943473,-0.298585,-0.609366,0.599115,0.455186,2.719709,14.658053,-13.971920,,,,,,
1478537201.77,0.447155,-1.276496,-2.241221,-3.978111,-1.243114,-1.491970,0.125427,0.957005,-0.261551,-0.428115,0.427577,0.270187,2.719709,14.658053,-13.971920,,,,,,
1478537201.78,0.459558,-1.322408,-2.215447,-4.284688,-1.113362,-1.260654,0.109044,0.969310,-0.220335,-0.168629,0.156880,0.287626,2.007247,15.739077,-12.873319,,,,,,
1478537201.80,0.553435,-1.413866,-2.099242,-4.176489,-1.033088,-1.024968,0.082146,0.987712,-0.132957,0.289772,0.484044,-1.085625,1.628655,16.319473,-12.185735,,,,,,
1478537201.79,0.494222,-1.369373,-2.169833,-4.425448,-0.902164,-1.182853,0.094900,0.979783,-0.176124,0.277018,0.491973,-1.042458,1.628655,16.319473,-12.185735,,,,,,
1478537201.81,0.657651,-1.451392,-1.980962,-3.686293,-1.270776,-0.647169,0.072814,0.992880,-0.094276,0.541902,0.484903,-0.696999,0.996930,17.393866,-10.673776,,,,,,
1478537201.82,0.868385,-1.479348,-1.758453,-3.393569,-0.872179,-0.047483,0.069704,0.995821,-0.058999,0.545011,0.481962,-0.732276,0.996930,17.393866,-10.673776,,,,,,
1478537201.83,1.258982,-1.490781,-1.358826,-3.342775,-0.775845,0.878823,0.076076,0.996800,-0.024521,0.599965,0.587336,-0.029067,0.579682,18.165947,-9.334464,,,,,,
1478537201.84,1.663714,-1.478736,-0.935511,-3.265265,-1.981482,1.650883,0.091534,0.995765,0.008530,0.432514,0.677849,0.493256,0.579682,18.165947,-9.334464,,,,,,
1478537201.85,1.892042,-1.452889,-0.675560,-2.915118,-3.100313,1.858792,0.111616,0.993057,0.037143,0.224886,0.684708,0.384991,0.782528,18.757746,-8.062540,,,,,,
1478537201.86,1.994523,-1.428699,-0.537619,-2.263952,-3.238060,1.356634,0.129095,0.989921,0.058228,0.000620,0.759209,-0.065568,0.782528,18.757746,-8.062540,,,,,,
1478537201.87,2.076110,-1.412021,-0.427253,-2.123112,-2.306034,0.484417,0.138349,0.987422,0.076538,-0.096250,0.871435,-0.072632,0.971169,19.158480,-7.034162,,,,,,
1478537201.89,2.196838,-1.401288,-0.292122,-2.405424,-0.832608,-0.512203,0.136705,0.985668,0.098847,-0.020661,0.891438,-0.247544,0.971169,19.158480,-7.034162,,,,,,
1478537201.90,2.369629,-1.391233,-0.118259,-2.942057,0.432452,-1.326236,0.124582,0.983922,0.127975,0.098426,0.623226,-0.442840,0.792253,19.461781,-6.171010,,,,,,
1478537201.91,2.549247,-1.372687,0.059826,-3.490261,0.292966,-1.308493,0.109884,0.980440,0.163285,0.247660,0.226011,-0.737488,0.792253,19.461781,-6.171010,,,,,,
1478537201.92,2.684925,-1.344838,0.204044,-3.789836,-0.783584,-1.152376,0.098793,0.974580,0.201082,0.226372,-0.115617,-0.910631,0.307032,19.834675,-4.895031,,,,,,
1478537201.93,2.780753,-1.312135,0.317247,-3.876971,-1.483026,-1.128336,0.090308,0.966733,0.239314,0.029992,-0.173566,-0.810405,0.307032,19.834675,-4.895031,,,,,,
1478537201.94,2.849319,-1.279034,0.404719,-3.626002,-1.440553,-1.146280,0.082878,0.957738,0.275442,-0.199211,-0.256963,-0.616873,-0.254868,20.163219,-3.293867,,,,,,
1478537201.95,2.899670,-1.248570,0.472560,-3.193552,-1.340799,-1.081624,0.075867,0.948533,0.307457,-0.167496,-0.404282,-0.632225,-0.540779,20.271332,-2.500131,,,,,,
1478537201.96,2.930653,-1.221239,0.520302,-2.763407,-1.375261,-0.795201,0.071708,0.939524,0.334891,-0.150459,-0.594859,-0.702719,-0.540779,20.271332,-2.500131,,,,,,
1478537201.97,2.942641,-1.196955,0.550563,-2.375686,-1.598535,-0.439975,0.072178,0.930931,0.357991,-0.163303,-0.787972,-0.703495,-1.017813,20.373869,-1.157351,,,,,,
1478537201.98,2.942389,-1.175929,0.568471,-1.986431,-1.583630,-0.170920,0.076125,0.923047,0.377079,-0.112807,-0.945676,-0.676243,-1.017813,20.373869,-1.157351,,,,,,
1478537201.99,2.935058,-1.158930,0.578123,-1.543247,-1.536789,0.016203,0.082093,0.916375,0.391812,-0.019502,-1.004083,-0.715314,-1.201010,20.396246,-0.143486,,,,,,
1478537202.00,2.922581,-1.146142,0.582544,-1.120818,-1.584372,0.094239,0.089515,0.911181,0.402164,0.122232,-0.945132,-0.758380,-1.201010,20.396246,-0.143486,,,,,,
1478537202.01,2.909015,-1.136811,0.586537,-0.846040,-1.667479,0.027248,0.096917,0.907297,0.409168,0.197791,-0.868647,-0.819096,-1.180707,20.391472,0.513556,,,,,,
1478537202.02,2.895220,-1.130324,0.592306,-0.579391,-1.840247,-0.118067,0.103986,0.904550,0.413492,0.172626,-0.846826,-0.879632,-1.180707,20.391472,0.513556,,,,,,
1478537202.03,2.882062,-1.128233,0.599498,-0.147235,-1.877170,-0.269417,0.109902,0.903657,0.413916,0.076224,-0.843568,-0.864187,-1.162123,20.379622,0.889060,,,,,,
1478537202.04,2.869654,-1.131765,0.606204,0.385338,-1.697449,-0.376370,0.114172,0.905164,0.409442,-0.002340,-0.885282,-0.775058,-1.162123,20.379622,0.889060,,,,,,
1478537202.05,2.858687,-1.140945,0.611195,0.915602,-1.396854,-0.447376,0.116331,0.909028,0.400170,-0.071638,-0.932633,-0.678094,-1.251354,20.372160,0.937602,,,,,,
1478537202.06,2.848797,-1.155520,0.614005,1.427088,-1.114933,-0.517112,0.116446,0.915005,0.386272,-0.163824,-0.908795,-0.558269,-1.251354,20.372160,0.937602,,,,,,
1478537202.07,2.840007,-1.175560,0.614883,1.947520,-0.848767,-0.618340,0.114366,0.922906,0.367649,-0.246874,-0.856820,-0.396290,-1.428974,20.375196,0.528550,,,,,,
1478537202.08,2.833242,-1.202013,0.614427,2.560724,-0.513477,-0.784398,0.109401,0.932766,0.343479,-0.302608,-0.773144,-0.170307,-1.428974,20.375196,0.528550,,,,,,
1478537202.10,2.829251,-1.234308,0.612926,3.029785,-0.158302,-0.918532,0.101459,0.943920,0.314200,-0.230075,-0.491192,0.418070,-1.711090,20.357298,-0.350059,,,,,,
1478537202.11,2.825470,-1.265618,0.609791,2.721236,-0.102013,-0.775536,0.093409,0.953793,0.285575,-0.005305,-0.143979,0.992227,-1.903364,20.319897,-0.974127,,,,,,
1478537202.12,2.818871,-1.287114,0.608672,1.672240,-0.712345,-0.568201,0.088768,0.960031,0.265443,0.215081,0.535177,1.278853,-1.903364,20.319897,-0.974127,,,,,,
1478537202.13,2.809358,-1.295825,0.615934,0.363056,-1.890341,-0.395512,0.088558,0.962433,0.256672,0.474492,1.367508,1.220928,-2.221954,20.213551,-1.986241,,,,,,
1478537202.14,2.801090,-1.288150,0.635025,-1.222509,-2.669763,-0.170992,0.093141,0.960321,0.262886,0.371733,2.153937,1.404930,-2.221954,20.213551,-1.986241,,,,,,
1478537202.15,2.799708,-1.269032,0.661167,-2.149609,-2.380869,-0.043305,0.099642,0.954814,0.280004,0.131742,2.040365,1.004069,-2.452271,20.199215,-1.856869,,,,,,
1478537202.16,2.806005,-1.244226,0.689413,-2.571357,-1.829890,0.016119,0.105646,0.947148,0.302901,0.050909,1.102611,0.639268,-2.452271,20.199215,-1.856869,,,,,,
1478537202.17,2.811039,-1.218667,0.711900,-2.484701,-1.473273,0.169562,0.111942,0.938640,0.326225,0.144192,0.373310,0.319404,-2.531233,20.259209,-0.791961,,,,,,
1478537202.18,2.809440,-1.195529,0.727368,-2.160424,-1.569267,0.199167,0.119515,0.930410,0.346488,0.312095,-0.223897,0.142449,-2.531233,20.259209,-0.791961,,,,,,
1478537202.19,2.807061,-1.176298,0.742027,-1.825706,-1.442578,0.080442,0.126191,0.923189,0.363039,0.441894,-0.659472,0.346251,-2.465478,20.280445,0.307968,,,,,,
1478537202.20,2.811185,-1.159578,0.757937,-1.660994,-0.820598,-0.087119,0.129683,0.916634,0.378105,0.412218,-0.838906,0.642402,-2.465478,20.280445,0.307968,,,,,,
1478537202.21,2.819127,-1.146209,0.771669,-1.242965,-0.386765,-0.054067,0.130548,0.911209,0.390712,0.299063,-0.551712,0.847356,-2.433832,20.254595,1.139206,,,,,,
1478537202.22,2.814028,-1.135898,0.769945,-0.836068,-0.319092,0.567571,0.135554,0.906913,0.398916,0.484227,0.525155,0.656779,-2.433832,20.254595,1.139206,,,,,,
1478537202.23,2.800954,-1.121894,0.755794,-1.233647,0.128415,1.033821,0.144987,0.900924,0.409042,0.703401,1.748856,0.133698,-2.362128,20.228344,1.644514,,,,,,
1478537202.24,2.803841,-1.100681,0.755836,-2.063224,0.161185,0.517219,0.150106,0.891516,0.427396,-0.642858,-0.152106,-1.443631,-2.153070,20.231840,1.872651,,,,,,
1478537202.25,2.806737,-1.083838,0.765007,-1.376057,-0.605848,0.020071,0.153780,0.883760,0.441950,-0.646532,-0.144350,-1.458185,-2.153070,20.231840,1.872651,,,,,,
1478537202.27,2.829998,-1.096690,0.783738,1.355395,0.784561,-0.712104,0.139966,0.889701,0.434559,0.407871,-1.541328,-1.366764,-1.972040,20.165806,2.630832,,,,,,
1478537202.26,2.816192,-1.083125,0.776025,0.184657,0.216219,-0.584502,0.149796,0.883427,0.443980,0.398040,-1.535053,-1.376186,-1.972040,20.165806,2.630832,,,,,,
1478537202.28,2.840419,-1.116202,0.784129,1.890833,0.965587,-0.533274,0.130255,0.898439,0.419334,0.506494,-1.381029,-0.829597,-2.236727,20.163799,2.426550,,,,,,
1478537202.30,2.845513,-1.141297,0.777515,2.533515,1.149211,-0.438791,0.121499,0.909174,0.398297,0.044044,-0.786921,-0.730267,-2.236727,20.163799,2.426550,,,,,,
1478537202.31,2.858944,-1.172600,0.770360,3.030312,2.200193,-0.648046,0.108145,0.921762,0.372370,-0.410132,-0.071527,-0.902674,-2.495376,20.223541,1.500474,,,,,,
1478537202.32,2.886084,-1.206003,0.766433,3.095418,3.095258,-0.714953,0.090166,0.934198,0.345174,-0.363832,0.572898,-0.841664,-2.495376,20.223541,1.500474,,,,,,
1478537202.33,2.915065,-1.238295,0.763108,2.970568,2.952295,-0.569620,0.073310,0.945229,0.318069,-0.189261,1.076484,-0.760009,-2.808764,20.237938,0.081676,,,,,,
1478537202.34,2.933081,-1.267193,0.757076,2.618180,1.992693,-0.388032,0.061886,0.954265,0.292486,-0.033581,1.297337,-0.722387,-2.808764,20.237938,0.081676,,,,,,
1478537202.35,2.941090,-1.292237,0.752505,2.295683,0.920706,-0.348836,0.054764,0.961453,0.269462,-0.146805,0.982883,-0.582633,-2.998828,20.169041,-1.298731,,,,,,
1478537202.36,2.938100,-1.316259,0.744123,2.304318,0.402657,-0.209963,0.050886,0.967780,0.246603,-0.257109,0.528009,-0.422079,-2.998828,20.169041,-1.298731,,,,,,
1478537202.37,2.925581,-1.341753,0.725434,2.517167,0.633851,-0.051353,0.048664,0.973884,0.221770,-0.248463,0.151391,-0.360503,-3.098743,20.060530,-2.332989,,,,,,
1478537202.38,2.901402,-1.368927,0.691589,2.722347,0.878397,0.131449,0.047697,0.979693,0.194745,-0.172407,-0.155231,-0.388898,-3.098743,20.060530,-2.332989,,,,,,
1478537202.39,2.852365,-1.397494,0.632742,2.950629,0.808589,0.359137,0.049181,0.985021,0.165274,0.136763,-0.453938,-0.329047,-3.056610,19.904274,-3.456434,,,,,,
1478537202.40,2.753020,-1.426295,0.525009,3.171162,0.635008,0.714790,0.054557,0.989578,0.133264,0.131387,-0.458496,-0.297037,-3.056610,19.904274,-3.456434,,,,,,
1478537202.41,2.573551,-1.451833,0.337510,3.221024,0.612778,1.038442,0.063850,0.992932,0.100045,0.136208,-0.375485,-0.190575,-3.056610,19.904274,-3.456434,,,,,,
1478537202.42,2.299335,-1.468963,0.054428,3.019065,0.733792,1.077415,0.075851,0.994819,0.067681,0.237503,-0.031654,-0.107812,-2.570578,19.527174,-5.436132,,,,,,
1478537202.43,2.006691,-1.477023,-0.248623,2.677494,0.898230,0.839135,0.084880,0.995606,0.039535,0.228474,-0.032441,-0.079666,-2.570578,19.527174,-5.436132,,,,,,
1478537202.44,1.726310,-1.478728,-0.540491,2.462745,0.993748,0.505732,0.090829,0.995765,0.014240,0.254890,0.060464,-0.039234,-2.040918,19.202688,-6.675430,,,,,,
1478537202.45,1.461510,-1.476576,-0.817095,2.431888,1.011058,0.192249,0.093520,0.995565,-0.010261,0.223573,0.013453,0.016731,-2.040918,19.202688,-6.675430,,,,,,
1478537202.46,1.222250,-1.468678,-1.066975,2.439783,0.841357,0.230795,0.095812,0.994790,-0.034816,0.140028,-0.137613,0.033153,-1.719622,18.846554,-7.701967,,,,,,
1478537202.47,1.027931,-1.453928,-1.270699,2.535207,0.786220,0.383957,0.099839,0.993179,-0.060236,0.058273,-0.230224,0.070535,-1.719622,18.846554,-7.701967,,,,,,
1478537202.48,0.886258,-1.434025,-1.423620,2.602685,1.025422,0.515803,0.105628,0.990661,-0.086213,-0.003257,-0.247375,0.170808,-1.468387,18.429516,-8.698661,,,,,,
1478537202.49,0.791199,-1.410891,-1.533060,2.610200,1.328678,0.634664,0.113240,0.987242,-0.111934,-0.042759,-0.199492,0.242671,-1.468387,18.429516,-8.698661,,,,,,
1478537202.51,0.731219,-1.386230,-1.609808,2.533989,1.528939,0.735658,0.122550,0.983016,-0.136605,-0.064369,-0.150207,0.240914,-1.045198,17.940113,-9.722649,,,,,,
1478537202.52,0.698560,-1.361604,-1.659918,2.319053,1.568568,0.868023,0.133556,0.978199,-0.159027,-0.079341,-0.085865,0.208954,-1.045198,17.940113,-9.722649,,,,,,
1478537202.53,0.686323,-1.337950,-1.688719,2.045858,1.485397,1.002845,0.146224,0.973014,-0.178502,-0.094650,-0.019187,0.197942,-0.430616,17.422493,-10.664951,,,,,,
1478537202.54,0.684547,-1.315738,-1.706016,1.844445,1.412211,1.031834,0.159536,0.967649,-0.195459,-0.206823,0.039920,0.145700,-0.430616,17.422493,-10.664951,,,,,,
1478537202.55,0.685314,-1.294785,-1.720309,1.753751,1.373957,0.957583,0.172482,0.962150,-0.210990,-0.273984,0.013405,0.115745,0.272149,16.959942,-11.391061,,,,,,
1478537202.56,0.684008,-1.275127,-1.736048,1.702560,1.289446,0.824588,0.184125,0.956607,-0.225833,-0.320996,-0.036670,0.070484,0.272149,16.959942,-11.391061,,,,,,
1478537202.57,0.680986,-1.256356,-1.751815,1.663902,1.085680,0.763694,0.194713,0.950970,-0.240299,-0.359081,-0.077556,0.015751,0.927610,16.520088,-11.987331,,,,,,
1478537202.59,0.664700,-1.220378,-1.787358,1.703802,0.693308,0.541546,0.211750,0.939229,-0.270205,-0.370777,-0.019918,0.046801,1.207298,16.298536,-12.262547,,,,,,
1478537202.58,0.674849,-1.238080,-1.768426,1.672119,0.862661,0.673140,0.204060,0.945159,-0.255019,-0.363087,-0.025847,0.031615,1.207298,16.298536,-12.262547,,,,,,
1478537202.60,0.653364,-1.202858,-1.805994,1.690027,0.538726,0.531692,0.218643,0.933071,-0.285611,-0.298187,0.014729,0.102826,1.638848,15.836245,-12.806150,,,,,,
1478537202.61,0.642418,-1.185564,-1.822700,1.663329,0.416225,0.521110,0.225139,0.926711,-0.300863,-0.226939,0.060273,0.162878,1.638848,15.836245,-12.806150,,,,,,
1478537202.62,0.632698,-1.168278,-1.838727,1.677418,0.532686,0.505856,0.231642,0.920078,-0.315910,-0.146086,0.067349,0.234779,1.951479,15.354034,-13.338490,,,,,,
1478537202.63,0.624982,-1.150179,-1.855226,1.796714,0.751052,0.506345,0.238903,0.912837,-0.331140,-0.044567,0.049214,0.272806,1.951479,15.354034,-13.338490,,,,,,
1478537202.64,0.619392,-1.130715,-1.870156,1.851312,0.737894,0.638586,0.247318,0.904717,-0.346873,0.097882,-0.011986,0.318263,2.282457,14.841000,-13.856588,,,,,,
1478537202.65,0.617566,-1.111393,-1.879430,1.654655,0.573470,0.784471,0.256760,0.896317,-0.361511,0.123749,-0.061890,0.297561,2.282457,14.841000,-13.856588,,,,,,
1478537202.66,0.618231,-1.094262,-1.883160,1.343782,0.311660,0.812611,0.265861,0.888590,-0.373798,-0.086555,0.058584,0.199833,2.693540,14.275871,-14.367125,,,,,,
1478537202.67,0.619489,-1.079835,-1.884478,1.096792,0.233060,0.718388,0.273747,0.881880,-0.383862,-0.332478,0.256838,0.242352,2.693540,14.275871,-14.367125,,,,,,
1478537202.68,0.621842,-1.068014,-1.886405,0.927834,0.453738,0.533161,0.280703,0.876245,-0.391664,-0.553393,0.385931,0.354814,3.017599,13.835423,-14.729057,,,,,,
