timestamp(unix),attitude_roll(radians),attitude_pitch(radians),attitude_yaw(radians),rotation_rate_x(radians/s),rotation_rate_y(radians/s),rotation_rate_z(radians/s),gravity_x(G),gravity_y(G),gravity_z(G),user_acc_x(G),user_acc_y(G),user_acc_z(G),magnetic_field_x(microteslas),magnetic_field_y(microteslas),magnetic_field_z(microteslas),latitude(degree),longitude(degree),altitude(meter),speed(m/s),course(degree),timestamp(unix)
1478536497.64,0.013258,0.434164,2.729235,-0.303666,-0.289746,0.125242,0.012028,-0.420652,-0.907142,0.029080,-0.045550,0.014946,-20.505154,-19.811121,-30.733505,,,,,,
1478536497.65,0.009685,0.431401,2.731141,-0.249613,-0.253964,0.173250,0.008798,-0.418144,-0.908338,0.032309,-0.048058,0.016142,-20.505154,-19.811121,-30.733505,,,,,,
1478536497.66,0.006217,0.429310,2.733417,-0.185306,-0.237713,0.198433,0.005653,-0.416244,-0.909236,0.015633,-0.034776,0.018427,-20.682495,-19.606924,-30.745621,,,,,,
1478536497.67,0.003007,0.427881,2.735623,-0.122437,-0.207533,0.184114,0.002736,-0.414943,-0.909843,0.013622,-0.003636,0.013115,-20.682495,-19.606924,-30.745621,,,,,,
1478536497.68,0.000425,0.426559,2.737528,-0.085164,-0.142749,0.154124,0.000386,-0.413740,-0.910395,-0.002157,0.016752,0.011362,-20.915779,-19.394293,-30.722662,,,,,,
1478536497.69,-0.001141,0.425578,2.739104,-0.095981,-0.067168,0.129389,-0.001039,-0.412847,-0.910800,-0.016112,0.019308,0.015124,-20.915779,-19.394293,-30.722662,,,,,,
1478536497.70,-0.001675,0.424229,2.740371,-0.143521,0.018101,0.102734,-0.001526,-0.411618,-0.911355,-0.021683,0.021039,0.019525,-21.088312,-19.246662,-30.697546,,,,,,
1478536497.71,-0.001653,0.422158,2.741362,-0.214528,0.045059,0.081631,-0.001507,-0.409730,-0.912206,-0.027606,0.026277,0.026067,-21.088312,-19.246662,-30.697546,,,,,,
1478536497.72,-0.002975,0.419337,2.742498,-0.275973,-0.010612,0.039986,-0.002717,-0.407155,-0.913355,-0.034225,0.018254,0.050226,-21.137987,-19.111986,-30.747482,,,,,,
1478536497.74,-0.002906,0.416130,2.742285,-0.310274,0.002105,-0.025726,-0.002658,-0.404223,-0.914656,-0.038327,0.029254,0.031447,-21.137987,-19.111986,-30.747482,,,,,,
1478536497.75,-0.003938,0.413165,2.742019,-0.271019,-0.148537,-0.025069,-0.003607,-0.401510,-0.915848,0.009299,-0.011012,0.010528,-21.185087,-18.911797,-30.838718,,,,,,
1478536497.76,-0.006054,0.410980,2.741756,-0.179322,-0.230874,-0.021129,-0.005550,-0.399508,-0.916713,-0.000813,-0.008466,-0.007619,-21.185087,-18.911797,-30.838718,,,,,,
1478536497.77,-0.008658,0.410278,2.741622,-0.047474,-0.280951,-0.001210,-0.007940,-0.398864,-0.916976,0.006688,-0.013444,-0.014512,-21.241901,-18.741802,-30.903347,,,,,,
1478536497.78,-0.012079,0.410551,2.741807,0.048998,-0.330022,0.020634,-0.011075,-0.399115,-0.916834,0.010159,-0.017466,-0.030477,-21.311710,-18.703400,-30.878540,,,,,,
1478536497.79,-0.015857,0.411681,2.742116,0.122367,-0.340762,0.026780,-0.014531,-0.400151,-0.916334,0.021840,-0.003307,-0.022219,-21.311710,-18.703400,-30.878540,,,,,,
1478536497.80,-0.018566,0.413110,2.742630,0.135009,-0.198669,0.050319,-0.017003,-0.401459,-0.915719,-0.010615,0.013886,-0.001319,-21.523075,-18.713114,-30.725674,,,,,,
1478536497.81,-0.021021,0.414261,2.743881,0.082578,-0.121465,0.096092,-0.019242,-0.402514,-0.915212,-0.015396,0.010180,0.026296,-21.523075,-18.713114,-30.725674,,,,,,
1478536497.82,-0.021112,0.413716,2.745410,-0.093761,0.109520,0.148517,-0.019329,-0.402015,-0.915429,-0.042301,0.010123,0.030374,-21.717512,-18.773420,-30.551575,,,,,,
1478536497.83,-0.020052,0.412009,2.747404,-0.172799,0.194084,0.182742,-0.018373,-0.400451,-0.916134,-0.047133,-0.025330,0.048336,-21.717512,-18.773420,-30.551575,,,,,,
1478536497.84,-0.018292,0.409873,2.749420,-0.207460,0.254536,0.175089,-0.016776,-0.398493,-0.917018,-0.035927,-0.031439,0.035014,-21.748123,-18.686409,-30.583126,,,,,,
1478536497.85,-0.017349,0.408145,2.751466,-0.231279,0.229957,0.139594,-0.015923,-0.396907,-0.917721,-0.028358,-0.013020,0.029888,-21.748123,-18.686409,-30.583126,,,,,,
1478536497.86,-0.015883,0.405806,2.752597,-0.213081,0.166186,0.089422,-0.014592,-0.394760,-0.918668,-0.026561,0.001739,0.012480,-21.696114,-18.492157,-30.737751,,,,,,
1478536497.87,-0.014771,0.403859,2.753248,-0.173564,0.121009,0.049056,-0.013582,-0.392970,-0.919451,-0.017027,0.013697,0.004916,-21.696114,-18.492157,-30.737751,,,,,,
1478536497.88,-0.014077,0.402396,2.753736,-0.127674,0.074327,0.046785,-0.012953,-0.391624,-0.920034,-0.013216,0.018730,-0.001353,-21.617476,-18.304260,-30.905165,,,,,,
1478536497.89,-0.013425,0.401458,2.754303,-0.073513,0.091942,0.049723,-0.012357,-0.390761,-0.920409,-0.000964,0.007139,-0.010438,-21.617476,-18.304260,-30.905165,,,,,,
1478536497.90,-0.012169,0.401053,2.754746,0.002974,0.153102,0.037530,-0.011203,-0.390388,-0.920582,-0.014417,0.001243,-0.015010,-21.576546,-18.192490,-30.999620,,,,,,
1478536497.92,-0.006785,0.404788,2.756397,0.287901,0.362095,0.094532,-0.006237,-0.393824,-0.919165,-0.032765,-0.006338,-0.049311,-21.501554,-18.159061,-31.071241,,,,,,
1478536497.91,-0.010009,0.402133,2.755379,0.140989,0.260077,0.062245,-0.009210,-0.391382,-0.920182,-0.029792,-0.008780,-0.048293,-21.501554,-18.159061,-31.071241,,,,,,
1478536497.93,-0.004258,0.408166,2.757926,0.388038,0.326639,0.117427,-0.003908,-0.396927,-0.917842,-0.028547,0.001999,-0.065312,-21.419132,-18.201860,-31.103109,,,,,,
1478536497.95,-0.001833,0.412445,2.759158,0.411342,0.261391,0.099241,-0.001680,-0.400851,-0.916142,-0.030776,0.005923,-0.067012,-21.419132,-18.201860,-31.103109,,,,,,
1478536497.96,0.000752,0.417014,2.759579,0.441447,0.272253,0.006282,0.000688,-0.405032,-0.914302,-0.027238,0.021502,-0.000859,-21.259777,-18.367418,-31.115116,,,,,,
1478536497.97,0.003608,0.421382,2.758494,0.393983,0.195154,-0.123106,0.003293,-0.409022,-0.912519,-0.062894,0.060359,0.051373,-21.259777,-18.367418,-31.115116,,,,,,
1478536497.98,0.003883,0.424244,2.756125,0.229153,-0.170988,-0.229686,0.003538,-0.411632,-0.911343,-0.119734,0.065502,0.052823,-21.098692,-18.636059,-31.064980,,,,,,
1478536497.99,-0.002637,0.426848,2.753916,0.169163,-0.536499,-0.337210,-0.002401,-0.414003,-0.910272,-0.090236,0.007860,0.073633,-21.098692,-18.636059,-31.064980,,,,,,
1478536498.00,-0.008529,0.429757,2.749232,0.324227,-0.794508,-0.426280,-0.007753,-0.416650,-0.909034,-0.024702,-0.035971,0.116004,-21.174154,-18.906193,-30.849659,,,,,,
1478536498.01,-0.014994,0.435309,2.743976,0.594780,-0.825911,-0.468449,-0.013595,-0.421691,-0.906638,-0.006440,-0.027604,0.063178,-21.174154,-18.906193,-30.849659,,,,,,
1478536498.02,-0.021916,0.443606,2.738404,0.835585,-0.919383,-0.503868,-0.019793,-0.429200,-0.902993,-0.058347,0.033524,-0.012290,-21.472469,-19.273941,-30.412804,,,,,,
1478536498.03,-0.029931,0.453840,2.732315,0.998193,-1.030383,-0.569554,-0.026897,-0.438420,-0.898368,-0.107121,0.079823,-0.079339,-21.472469,-19.273941,-30.412804,,,,,,
1478536498.04,-0.038947,0.465476,2.724731,1.109914,-1.254641,-0.732180,-0.034795,-0.448849,-0.892930,-0.135081,0.099712,-0.065612,-21.835503,-19.985186,-29.686588,,,,,,
1478536498.05,-0.052513,0.477728,2.715218,1.124347,-1.896245,-0.894071,-0.046613,-0.459763,-0.886818,-0.163074,0.059555,0.016700,-21.835503,-19.985186,-29.686588,,,,,,
1478536498.06,-0.072129,0.489657,2.704057,1.044541,-2.451932,-1.046508,-0.063598,-0.470323,-0.880200,-0.216324,0.065782,-0.025959,-22.288261,-20.964550,-28.656784,,,,,,
1478536498.07,-0.091346,0.499135,2.691191,0.709961,-2.347726,-1.176969,-0.080090,-0.478667,-0.874336,-0.188022,0.120772,0.092979,-22.288261,-20.964550,-28.656784,,,,,,
1478536498.08,-0.105508,0.504022,2.677030,0.225461,-1.856797,-1.226592,-0.092216,-0.482952,-0.870778,-0.125969,0.159252,0.204350,-23.162893,-22.059935,-27.098526,,,,,,
1478536498.09,-0.113054,0.504347,2.662726,-0.198483,-1.201988,-1.162820,-0.098767,-0.483236,-0.869901,-0.069660,0.132040,0.243986,-23.512659,-22.519066,-26.410921,,,,,,
1478536498.10,-0.113679,0.500841,2.649899,-0.537122,-0.463683,-0.967995,-0.099503,-0.480163,-0.871517,-0.025177,0.057861,0.242123,-23.512659,-22.519066,-26.410921,,,,,,
1478536498.11,-0.108760,0.493399,2.640263,-0.881052,0.180612,-0.628165,-0.095599,-0.473622,-0.875524,0.024783,-0.023403,0.229010,-23.696133,-23.055233,-25.776730,,,,,,
1478536498.12,-0.101359,0.481666,2.635047,-1.248916,0.547152,-0.217763,-0.089673,-0.463256,-0.881676,0.073971,-0.096223,0.202507,-23.696133,-23.055233,-25.776730,,,,,,
1478536498.13,-0.093160,0.465788,2.633510,-1.595364,0.765129,0.081395,-0.083115,-0.449127,-0.889593,0.137360,-0.149414,0.146857,-23.352938,-22.971802,-26.161556,,,,,,
1478536498.14,-0.083499,0.446856,2.633879,-1.851156,0.993670,0.219793,-0.075213,-0.432132,-0.898668,0.157717,-0.138302,0.118685,-23.352938,-22.971802,-26.161556,,,,,,
1478536498.16,-0.072258,0.425732,2.635513,-2.029467,1.169818,0.320946,-0.065750,-0.412987,-0.908360,0.131501,0.000023,0.116612,-22.949837,-22.131454,-27.221207,,,,,,
1478536498.17,-0.061426,0.403880,2.637850,-2.055077,1.070584,0.338196,-0.056448,-0.392989,-0.917809,0.091162,0.058715,0.105187,-22.949837,-22.131454,-27.221207,,,,,,
1478536498.18,-0.054049,0.383459,2.639840,-1.868306,0.660527,0.264415,-0.050099,-0.374131,-0.926022,0.074040,0.025803,0.044583,-22.429382,-20.833130,-28.642517,,,,,,
1478536498.19,-0.050890,0.366536,2.640640,-1.508367,0.227441,0.112577,-0.047489,-0.358384,-0.932366,0.054600,-0.013061,-0.053047,-22.429382,-20.833130,-28.642517,,,,,,
1478536498.20,-0.050063,0.354000,2.639106,-1.094606,-0.025113,-0.144553,-0.046939,-0.346652,-0.936819,-0.001828,-0.054822,-0.138819,-22.079615,-19.533049,-29.806726,,,,,,
1478536498.21,-0.049964,0.345793,2.634939,-0.704729,-0.149280,-0.391931,-0.046987,-0.338943,-0.939633,-0.051784,-0.062913,-0.184451,-22.079615,-19.533049,-29.806726,,,,,,
1478536498.22,-0.050305,0.341137,2.628801,-0.400778,-0.259768,-0.563514,-0.047386,-0.334559,-0.941183,-0.082909,-0.008642,-0.182597,-22.020670,-18.811255,-30.310350,,,,,,
1478536498.23,-0.051465,0.339020,2.621854,-0.182779,-0.348271,-0.617743,-0.048514,-0.332563,-0.941832,-0.066873,0.007505,-0.170793,-22.020670,-18.811255,-30.310350,,,,,,
1478536498.24,-0.052822,0.338695,2.615287,-0.021283,-0.320502,-0.569275,-0.049798,-0.332256,-0.941874,-0.023506,0.013043,-0.136618,-21.965557,-18.740789,-30.393873,,,,,,
1478536498.25,-0.053783,0.339593,2.610203,0.082967,-0.233392,-0.413481,-0.050687,-0.333103,-0.941527,0.012036,0.024998,-0.076387,-21.956816,-18.836395,-30.341042,,,,,,
1478536498.26,-0.055478,0.340549,2.607362,0.059328,-0.246357,-0.213691,-0.052265,-0.334005,-0.941121,0.029667,0.034582,-0.018275,-21.956816,-18.836395,-30.341042,,,,,,
1478536498.27,-0.056761,0.339484,2.605883,-0.176417,-0.143585,-0.104769,-0.053492,-0.333001,-0.941408,0.024104,0.044655,0.055818,-21.950237,-19.074440,-30.196741,,,,,,
1478536498.28,-0.058002,0.335531,2.604812,-0.448938,-0.175190,-0.071376,-0.054737,-0.329271,-0.942648,0.019581,0.043794,0.144949,-21.950237,-19.074440,-30.196741,,,,,,
1478536498.29,-0.061103,0.329050,2.603501,-0.675593,-0.396570,-0.084403,-0.057789,-0.323144,-0.944584,0.040577,0.013101,0.160831,-22.008570,-19.062731,-30.161659,,,,,,
1478536498.30,-0.066082,0.320862,2.601727,-0.818197,-0.556642,-0.121779,-0.062664,-0.315385,-0.946893,0.042995,-0.020431,0.126962,-22.008570,-19.062731,-30.161659,,,,,,
1478536498.31,-0.071622,0.311942,2.599244,-0.872096,-0.610882,-0.180512,-0.068107,-0.306908,-0.949299,0.026862,-0.026100,0.095799,-22.189211,-18.712091,-30.248753,,,,,,
1478536498.32,-0.077011,0.303283,2.596214,-0.821822,-0.588000,-0.218192,-0.073424,-0.298655,-0.951533,-0.001314,-0.019735,0.031397,-22.189211,-18.712091,-30.248753,,,,,,
1478536498.33,-0.081471,0.296043,2.593289,-0.661150,-0.473387,-0.203090,-0.077840,-0.291738,-0.953326,-0.009135,-0.009883,-0.049757,-22.502224,-18.247967,-30.301023,,,,,,
1478536498.34,-0.084620,0.290904,2.590953,-0.452621,-0.338942,-0.159423,-0.080968,-0.286818,-0.954557,-0.004664,0.017180,-0.065859,-22.502224,-18.247967,-30.301023,,,,,,
1478536498.36,-0.087603,0.286441,2.589148,-0.277112,-0.328188,-0.136221,-0.083926,-0.282540,-0.955577,-0.002896,0.048546,-0.027211,-22.741129,-17.900616,-30.329844,,,,,,
1478536498.37,-0.090898,0.284680,2.587352,-0.150400,-0.374263,-0.154464,-0.087119,-0.280850,-0.955789,-0.005044,0.060620,-0.009482,-22.741129,-17.900616,-30.329844,,,,,,
1478536498.38,-0.095006,0.284510,2.585365,0.014688,-0.475634,-0.187163,-0.091049,-0.280687,-0.955471,-0.003998,0.046526,0.017071,-22.904730,-17.721972,-30.311638,,,,,,
1478536498.39,-0.100984,0.286854,2.583932,0.291853,-0.664980,-0.119869,-0.096693,-0.282936,-0.954252,-0.008257,0.043724,0.034620,-22.904730,-17.721972,-30.311638,,,,,,
1478536498.40,-0.111201,0.291508,2.584307,0.534779,-0.973641,-0.006903,-0.106290,-0.287397,-0.951896,-0.043918,0.078382,0.044410,-23.127380,-17.791889,-30.100882,,,,,,
1478536498.41,-0.122900,0.297010,2.585049,0.498395,-1.140829,-0.004606,-0.117223,-0.292663,-0.949003,-0.082972,0.101928,0.085600,-23.127380,-17.791889,-30.100882,,,,,,
1478536498.42,-0.136949,0.299823,2.584047,0.153550,-1.444434,-0.176163,-0.130431,-0.295351,-0.946444,-0.102678,0.072038,0.057589,-23.684288,-18.079475,-29.490292,,,,,,
1478536498.43,-0.150632,0.298774,2.579834,-0.240518,-1.343292,-0.425170,-0.143415,-0.294349,-0.944876,-0.052630,-0.021828,0.025885,-24.050304,-18.220436,-29.104794,,,,,,
1478536498.44,-0.157611,0.295455,2.573071,-0.447635,-0.670417,-0.587920,-0.150158,-0.291175,-0.944812,-0.045887,-0.025002,0.025821,-24.050304,-18.220436,-29.104794,,,,,,
1478536498.45,-0.159717,0.291202,2.566471,-0.511153,-0.337709,-0.492658,-0.152343,-0.287104,-0.945708,-0.034790,-0.047460,0.059279,-24.716412,-18.327377,-28.472733,,,,,,
1478536498.46,-0.161806,0.286442,2.562157,-0.498507,-0.306298,-0.250168,-0.154537,-0.282541,-0.946725,0.018795,0.009165,-0.019553,-24.716412,-18.327377,-28.472733,,,,,,
1478536498.47,-0.162952,0.282136,2.560995,-0.394260,-0.060789,0.039089,-0.155817,-0.278407,-0.947740,0.067225,0.091808,-0.072051,-24.783962,-18.298786,-28.432375,,,,,,
1478536498.48,-0.161656,0.278245,2.563135,-0.323406,0.243984,0.315825,-0.154762,-0.274668,-0.949003,0.080116,0.101786,-0.036212,-24.783962,-18.298786,-28.432375,,,,,,
1478536498.49,-0.156370,0.271146,2.566547,-0.384756,0.344876,0.480029,-0.150043,-0.267835,-0.951710,0.090214,0.092603,0.040348,-24.841066,-18.064486,-28.532194,,,,,,
1478536498.50,-0.154114,0.265630,2.570239,-0.494329,0.293259,0.364032,-0.148121,-0.262517,-0.953491,0.105915,0.069173,0.063461,-24.841066,-18.064486,-28.532194,,,,,,
1478536498.51,-0.153500,0.258103,2.570042,-0.787899,-0.122024,-0.018302,-0.147833,-0.255247,-0.955507,0.067603,0.012235,0.094225,-24.728022,-17.552803,-28.946751,,,,,,
1478536498.52,-0.160722,0.249895,2.564777,-0.837455,-0.989215,-0.456941,-0.155061,-0.247302,-0.956451,0.068253,-0.059324,0.196990,-24.728022,-17.552803,-28.946751,,,,,,
1478536498.53,-0.168854,0.243514,2.556545,-0.675653,-0.894685,-0.697812,-0.163095,-0.241114,-0.956694,0.056650,-0.210729,-0.101137,-24.791504,-17.091103,-29.167892,,,,,,
1478536498.54,-0.173042,0.239751,2.547174,-0.442931,-0.523746,-0.817227,-0.167254,-0.237461,-0.956890,-0.022367,-0.176007,-0.180744,-24.791504,-17.091103,-29.167892,,,,,,
1478536498.55,-0.174528,0.238613,2.537699,-0.196050,-0.309334,-0.843038,-0.168724,-0.236355,-0.956906,-0.107537,0.052746,-0.285694,-25.118670,-16.988514,-28.947075,,,,,,
1478536498.57,-0.174301,0.239833,2.529186,0.029729,-0.123079,-0.771788,-0.168456,-0.237540,-0.956659,-0.038590,0.022758,-0.311468,-25.118670,-16.988514,-28.947075,,,,,,
1478536498.58,-0.173349,0.241962,2.522254,0.092564,-0.067061,-0.624652,-0.167458,-0.239608,-0.956319,0.025643,-0.002229,-0.249461,-25.040283,-17.269854,-28.848339,,,,,,
1478536498.59,-0.174167,0.243236,2.517404,0.016135,-0.246241,-0.403196,-0.168187,-0.240845,-0.955880,0.092610,0.045929,-0.144492,-24.933971,-17.481438,-28.812962,,,,,,
1478536498.60,-0.178298,0.242819,2.514810,-0.115014,-0.519796,-0.174804,-0.172152,-0.240440,-0.955276,0.156222,0.064750,-0.062943,-24.933971,-17.481438,-28.812962,,,,,,
1478536498.61,-0.185254,0.240881,2.513731,-0.222798,-0.735538,-0.039035,-0.178878,-0.238558,-0.954512,0.205368,0.027163,-0.006762,-24.889673,-17.740635,-28.692585,,,,,,
1478536498.62,-0.191086,0.238817,2.512408,-0.247145,-0.834735,-0.024225,-0.184535,-0.236554,-0.953934,0.198070,-0.027042,0.006500,-24.889673,-17.740635,-28.692585,,,,,,
1478536498.63,-0.199648,0.236969,2.511207,-0.170172,-0.834935,-0.091792,-0.192782,-0.234757,-0.952746,0.140979,-0.057922,-0.032804,-25.182531,-17.694717,-28.464497,,,,,,
1478536498.64,-0.207371,0.236453,2.509606,-0.040995,-0.739674,-0.150405,-0.200159,-0.234256,-0.951347,0.071268,-0.057614,-0.086526,-25.182531,-17.694717,-28.464497,,,,,,
1478536498.65,-0.213416,0.237558,2.507760,0.095165,-0.577645,-0.202685,-0.205851,-0.235330,-0.949866,0.016596,-0.054770,-0.109567,-25.648626,-17.622425,-28.090717,,,,,,
1478536498.66,-0.218133,0.239800,2.505583,0.186445,-0.481423,-0.255729,-0.210215,-0.237508,-0.948367,-0.016515,-0.052180,-0.102125,-25.648626,-17.622425,-28.090717,,,,,,
1478536498.67,-0.222702,0.242777,2.503135,0.234589,-0.501874,-0.289030,-0.214388,-0.240399,-0.946703,-0.029920,-0.035267,-0.090437,-25.943111,-17.759823,-27.731461,,,,,,
1478536498.68,-0.227998,0.245791,2.500589,0.216298,-0.574924,-0.291740,-0.219235,-0.243323,-0.944844,-0.015964,-0.017511,-0.065792,-25.943111,-17.759823,-27.731461,,,,,,
1478536498.69,-0.233938,0.248416,2.498261,0.183996,-0.629848,-0.254486,-0.224694,-0.245869,-0.942900,0.005379,-0.010158,-0.031404,-26.129539,-18.039587,-27.373545,,,,,,
1478536498.70,-0.240238,0.250381,2.496563,0.126084,-0.640750,-0.176645,-0.230515,-0.247773,-0.940995,0.026322,-0.006865,-0.004257,-26.129539,-18.039587,-27.373545,,,,,,
1478536498.71,-0.246751,0.251083,2.495543,0.004979,-0.645976,-0.083868,-0.236596,-0.248453,-0.939305,0.044854,0.013972,0.058338,-26.380241,-18.292702,-26.962013,,,,,,
1478536498.72,-0.253440,0.249689,2.495194,-0.179317,-0.644361,0.032410,-0.242960,-0.247103,-0.938036,0.052576,0.010683,0.093980,-26.380241,-18.292702,-26.962013,,,,,,
1478536498.73,-0.260365,0.246617,2.495858,-0.287814,-0.641209,0.166927,-0.249644,-0.244125,-0.937060,0.071955,-0.002350,0.121249,-26.701714,-18.367828,-26.591949,,,,,,
1478536498.74,-0.267607,0.242821,2.498125,-0.285135,-0.634042,0.344680,-0.256667,-0.240441,-0.936114,0.096892,-0.001441,0.116046,-26.894249,-18.289845,-26.451302,,,,,,
1478536498.75,-0.275636,0.239051,2.502839,-0.202409,-0.671356,0.574625,-0.264419,-0.236781,-0.934889,0.106109,0.022334,0.093092,-26.894249,-18.289845,-26.451302,,,,,,
1478536498.77,-0.285340,0.236291,2.510524,0.011110,-0.783397,0.813851,-0.273662,-0.234098,-0.932903,0.110820,0.043318,0.072978,-27.363785,-17.959782,-26.194656,,,,,,
1478536498.78,-0.297494,0.235880,2.521318,0.328764,-0.962474,1.011560,-0.285008,-0.233698,-0.929600,0.133656,0.081812,0.048862,-27.363785,-17.959782,-26.194656,,,,,,
1478536498.79,-0.311860,0.237369,2.533921,0.515951,-1.120163,1.073341,-0.298226,-0.235146,-0.925077,0.124673,0.128975,0.058866,-28.059650,-17.501469,-25.765188,,,,,,
1478536498.80,-0.327054,0.238259,2.545831,0.368721,-1.193340,0.993958,-0.312180,-0.236011,-0.920241,0.076721,0.128360,0.097868,-28.059650,-17.501469,-25.765188,,,,,,
1478536498.81,-0.341557,0.236034,2.555631,-0.007151,-1.126847,0.906463,-0.325668,-0.233848,-0.916109,0.011596,0.090126,0.111879,-29.013954,-17.109943,-24.958580,,,,,,
1478536498.82,-0.352203,0.229756,2.563135,-0.423939,-0.723147,0.837214,-0.335901,-0.227740,-0.913950,-0.046957,0.047259,0.095118,-29.013954,-17.109943,-24.958580,,,,,,
1478536498.83,-0.356378,0.219952,2.568256,-0.803189,-0.143396,0.742233,-0.340477,-0.218183,-0.914588,-0.112495,0.005979,0.125037,-29.923559,-16.577881,-24.233133,,,,,,
1478536498.84,-0.354787,0.207414,2.570895,-1.094000,0.290015,0.612979,-0.339945,-0.205930,-0.917622,-0.184179,-0.032122,0.158100,-29.923559,-16.577881,-24.233133,,,,,,
1478536498.85,-0.351349,0.193959,2.572491,-1.146327,0.345593,0.584303,-0.337711,-0.192745,-0.921304,-0.219723,-0.044407,0.156548,-30.333420,-15.735830,-24.284924,,,,,,
1478536498.86,-0.349853,0.181792,2.574925,-0.947226,0.123888,0.620355,-0.337112,-0.180792,-0.923943,-0.164063,-0.034342,0.116005,-30.333420,-15.735830,-24.284924,,,,,,
1478536498.87,-0.350777,0.172224,2.578561,-0.670101,-0.068691,0.631286,-0.338544,-0.171374,-0.925213,-0.040317,-0.065229,0.027996,-30.362652,-14.779888,-24.842598,,,,,,
1478536498.88,-0.352697,0.164407,2.582883,-0.542034,-0.121182,0.641379,-0.340772,-0.163667,-0.925790,0.008954,-0.046477,-0.052863,-30.440434,-14.349980,-24.998966,,,,,,
1478536498.89,-0.354942,0.156010,2.587183,-0.646489,-0.161531,0.660141,-0.343315,-0.155378,-0.926279,0.018944,-0.012987,-0.027655,-30.440434,-14.349980,-24.998966,,,,,,
1478536498.90,-0.357239,0.146251,2.590691,-0.784289,-0.154591,0.618787,-0.345955,-0.145731,-0.926864,0.015969,-0.097296,-0.064148,-30.685097,-13.628742,-25.103235,,,,,,
1478536498.91,-0.357179,0.136100,2.593639,-0.807096,0.129903,0.595259,-0.346399,-0.135680,-0.928223,0.029367,-0.162096,-0.114532,-30.685097,-13.628742,-25.103235,,,,,,
1478536498.92,-0.353723,0.126233,2.596752,-0.760593,0.437984,0.610353,-0.343636,-0.125898,-0.930626,0.034478,-0.138842,-0.151345,-30.931946,-12.827567,-25.222183,,,,,,
1478536498.93,-0.348359,0.117090,2.600839,-0.658221,0.581459,0.680543,-0.339018,-0.116823,-0.933498,0.058775,-0.073347,-0.213825,-30.931946,-12.827567,-25.222183,,,,,,
1478536498.94,-0.342495,0.108954,2.605842,-0.536045,0.624024,0.706117,-0.333847,-0.108739,-0.936334,0.084732,-0.058620,-0.274359,-30.904190,-12.020208,-25.650265,,,,,,
1478536498.95,-0.335793,0.102472,2.610775,-0.390404,0.710954,0.620901,-0.327789,-0.102293,-0.939197,0.100067,-0.066469,-0.291669,-30.904190,-12.020208,-25.650265,,,,,,
1478536498.96,-0.328008,0.097278,2.614998,-0.333244,0.801248,0.513500,-0.320635,-0.097125,-0.942210,0.073458,-0.077192,-0.258977,-30.736954,-11.265118,-26.188301,,,,,,
1478536498.98,-0.319776,0.091776,2.618387,-0.423061,0.808575,0.460569,-0.313031,-0.091647,-0.945311,0.042142,-0.087521,-0.193483,-30.736954,-11.265118,-26.188301,,,,,,
1478536498.99,-0.312073,0.085146,2.621307,-0.539895,0.737386,0.460084,-0.305920,-0.085043,-0.948251,0.030575,-0.094781,-0.126273,-30.432720,-10.715708,-26.767769,,,,,,
1478536499.00,-0.305222,0.077804,2.623954,-0.598464,0.646865,0.447275,-0.299596,-0.077726,-0.950895,0.027318,-0.099658,-0.088168,-30.432720,-10.715708,-26.767769,,,,,,
1478536499.01,-0.300119,0.070622,2.626370,-0.573920,0.442017,0.413067,-0.294897,-0.070563,-0.952920,0.024511,-0.105004,-0.060889,-30.103653,-10.135010,-27.359495,,,,,,
1478536499.02,-0.297961,0.064364,2.628591,-0.481573,0.140036,0.360628,-0.292964,-0.064319,-0.953958,0.024638,-0.107525,-0.057532,-30.103653,-10.135010,-27.359495,,,,,,
1478536499.03,-0.298992,0.060226,2.630268,-0.367508,-0.194826,0.263678,-0.294023,-0.060189,-0.953901,0.021287,-0.113181,-0.077974,-29.908108,-9.536102,-27.785934,,,,,,
1478536499.04,-0.302763,0.056811,2.631672,-0.235706,-0.389022,0.216122,-0.297677,-0.056780,-0.952976,0.036066,-0.112241,-0.094738,-29.916243,-9.323605,-27.849222,,,,,,
1478536499.05,-0.307195,0.054953,2.633421,-0.073810,-0.412740,0.211501,-0.301930,-0.054926,-0.951747,0.039677,-0.110037,-0.182714,-29.916243,-9.323605,-27.849222,,,,,,
1478536499.06,-0.311062,0.055374,2.635912,0.171682,-0.319817,0.219608,-0.305600,-0.055345,-0.950550,0.059812,-0.057707,-0.185803,-30.151760,-9.021372,-27.694344,,,,,,
1478536499.07,-0.312475,0.057397,2.639464,0.305631,-0.037547,0.278100,-0.306909,-0.057365,-0.950009,0.059091,-0.017326,-0.189747,-30.151760,-9.021372,-27.694344,,,,,,
1478536499.08,-0.311046,0.058891,2.643712,0.228969,0.211041,0.367233,-0.305524,-0.058857,-0.950364,0.029233,-0.009655,-0.110290,-30.384148,-8.940559,-27.465618,,,,,,
1478536499.09,-0.307701,0.058802,2.648441,0.102372,0.392639,0.445739,-0.302345,-0.058768,-0.951385,0.063331,-0.013345,-0.012131,-30.384148,-8.940559,-27.465618,,,,,,
1478536499.10,-0.301369,0.057224,2.652419,-0.198390,0.543164,0.419231,-0.296342,-0.057193,-0.953368,0.070985,-0.035687,0.071944,-30.365032,-8.862391,-27.512053,,,,,,
1478536499.11,-0.299462,0.051040,2.654322,-0.599374,0.030866,0.317842,-0.294622,-0.051018,-0.954251,0.060796,-0.041877,0.231015,-30.365032,-8.862391,-27.512053,,,,,,
1478536499.12,-0.302377,0.043326,2.654165,-0.710068,-0.322151,0.160311,-0.297511,-0.043313,-0.953735,0.060588,-0.117378,0.149796,-30.150095,-8.547938,-27.845915,,,,,,
1478536499.13,-0.305581,0.037002,2.652037,-0.599329,-0.308307,-0.081162,-0.300642,-0.036994,-0.953019,-0.014193,-0.138253,0.083116,-30.150095,-8.547938,-27.845915,,,,,,
1478536499.14,-0.309537,0.033060,2.648349,-0.412761,-0.429382,-0.254261,-0.304452,-0.033054,-0.951954,-0.074668,-0.100705,0.012150,-30.307642,-8.031836,-27.828526,,,,,,
1478536499.15,-0.314908,0.031670,2.644738,-0.170547,-0.538925,-0.289388,-0.309574,-0.031664,-0.950348,-0.072659,-0.021726,-0.108017,-30.307642,-8.031836,-27.828526,,,,,,
1478536499.16,-0.320341,0.032142,2.642082,-0.005209,-0.516133,-0.234648,-0.314727,-0.032137,-0.948638,-0.016739,-0.040663,-0.148789,-30.506088,-7.895197,-27.650227,,,,,,
1478536499.18,-0.325841,0.032779,2.640766,0.011576,-0.538193,-0.100350,-0.319934,-0.032773,-0.946873,0.020495,-0.038852,-0.107540,-30.506088,-7.895197,-27.650227,,,,,,
1478536499.19,-0.330253,0.032426,2.640972,-0.040441,-0.627868,0.084378,-0.324112,-0.032420,-0.945463,0.043427,-0.001851,-0.039232,-30.769592,-8.020005,-27.320358,,,,,,
1478536499.20,-0.338019,0.031405,2.642793,-0.025069,-0.772426,0.225630,-0.331456,-0.031400,-0.942948,0.066960,0.024503,0.035432,-30.769592,-8.020005,-27.320358,,,,,,
1478536499.21,-0.347662,0.030899,2.645780,0.082789,-0.956650,0.297751,-0.340538,-0.030894,-0.939723,0.081993,0.022685,0.074366,-31.070278,-7.987815,-26.987459,,,,,,
1478536499.22,-0.359588,0.031795,2.649653,0.255379,-1.182097,0.318766,-0.351711,-0.031790,-0.935569,0.077877,0.034765,0.076804,-31.321415,-7.905548,-26.720062,,,,,,
1478536499.23,-0.373828,0.034208,2.654367,0.406323,-1.387924,0.344043,-0.364968,-0.034201,-0.930392,0.091134,0.037176,0.071627,-31.321415,-7.905548,-26.720062,,,,,,
1478536499.24,-0.389680,0.037064,2.660011,0.459353,-1.515588,0.415645,-0.379632,-0.037056,-0.924395,0.111108,0.063072,0.097903,-31.995327,-7.812484,-25.937513,,,,,,
1478536499.25,-0.406256,0.039305,2.666588,0.424484,-1.556287,0.523756,-0.394867,-0.039295,-0.917897,0.126343,0.065311,0.091405,-31.995327,-7.812484,-25.937513,,,,,,
1478536499.26,-0.422537,0.039990,2.674065,0.313029,-1.504946,0.661096,-0.409747,-0.039979,-0.911322,0.131732,0.083070,0.119422,-32.850639,-7.774925,-24.857117,,,,,,
1478536499.27,-0.437882,0.038428,2.682211,0.145509,-1.399547,0.800394,-0.423709,-0.038418,-0.904983,0.129276,0.088177,0.140747,-32.850639,-7.774925,-24.857117,,,,,,
1478536499.28,-0.451515,0.034324,2.690786,-0.056829,-1.215216,0.940309,-0.436072,-0.034318,-0.899257,0.115516,0.091279,0.142085,-33.724960,-7.508800,-23.743111,,,,,,
1478536499.29,-0.462079,0.027184,2.699528,-0.310956,-0.891428,1.077122,-0.445645,-0.027181,-0.894797,0.091001,0.089345,0.129355,-33.724960,-7.508800,-23.743111,,,,,,
1478536499.30,-0.468723,0.016514,2.707497,-0.657782,-0.523090,1.144391,-0.451686,-0.016513,-0.892024,0.053431,0.082309,0.132686,-34.474258,-6.855562,-22.847694,,,,,,
1478536499.31,-0.471698,0.002462,2.713644,-1.009331,-0.204658,1.114317,-0.454399,-0.002462,-0.890795,0.008430,0.061956,0.133074,-34.474258,-6.855562,-22.847694,,,,,,
1478536499.32,-0.471712,-0.013336,2.718003,-1.174825,0.065888,1.030094,-0.454372,0.013336,-0.890712,-0.036107,0.015198,0.104549,-34.917778,-5.765710,-22.472113,,,,,,
1478536499.33,-0.469516,-0.028752,2.721446,-1.137312,0.235120,0.933342,-0.452268,0.028748,-0.891419,-0.060748,-0.023316,0.035477,-34.917778,-5.765710,-22.472113,,,,,,
1478536499.34,-0.467169,-0.042019,2.725033,-0.901966,0.181506,0.860378,-0.449963,0.042007,-0.892059,-0.071766,-0.041274,-0.046204,-35.035950,-4.462241,-22.584534,,,,,,
1478536499.35,-0.466708,-0.051832,2.730026,-0.517297,-0.034873,0.837696,-0.449344,0.051809,-0.891855,-0.060711,-0.032263,-0.142172,-35.035950,-4.462241,-22.584534,,,,,,
1478536499.36,-0.466749,-0.057358,2.736693,-0.077994,-0.009580,0.792100,-0.449245,0.057327,-0.891567,-0.033512,-0.038238,-0.241337,-35.020592,-3.358232,-22.798485,,,,,,
1478536499.37,-0.465649,-0.059573,2.744585,0.204171,0.072813,0.755536,-0.448206,0.059538,-0.891945,-0.020925,-0.053037,-0.254325,-35.060234,-2.957546,-22.793049,,,,,,
1478536499.39,-0.463763,-0.060267,2.752967,0.322078,0.162706,0.738550,-0.446505,0.060231,-0.892752,-0.031004,-0.022999,-0.211588,-35.060234,-2.957546,-22.793049,,,,,,
1478536499.40,-0.459891,-0.060742,2.761649,0.312632,0.373859,0.769190,-0.443032,0.060705,-0.894448,-0.010017,-0.040685,-0.138343,-35.078056,-2.451736,-22.825626,,,,,,
1478536499.41,-0.453731,-0.062798,2.770208,0.126322,0.591107,0.830288,-0.437458,0.062757,-0.897046,0.007969,-0.032087,-0.022921,-35.078056,-2.451736,-22.825626,,,,,,
1478536499.42,-0.444573,-0.067896,2.777994,-0.204956,0.915084,0.889944,-0.429082,0.067843,-0.900714,-0.040477,-0.026950,0.069217,-34.959850,-2.035486,-23.046825,,,,,,
1478536499.43,-0.431171,-0.076468,2.784399,-0.575084,1.337020,0.890969,-0.416714,0.076394,-0.905822,-0.107258,-0.039910,0.148635,-34.959850,-2.035486,-23.046825,,,,,,
1478536499.44,-0.414480,-0.087905,2.788664,-0.904937,1.620377,0.783308,-0.401159,0.087792,-0.911792,-0.167704,-0.054574,0.180545,-34.578442,-1.337476,-23.665012,,,,,,
1478536499.45,-0.397880,-0.100899,2.790272,-1.117674,1.508419,0.563818,-0.385494,0.100727,-0.917196,-0.178578,-0.058430,0.180944,-34.578442,-1.337476,-23.665012,,,,,,
1478536499.46,-0.385978,-0.113553,2.789393,-1.138542,0.988471,0.322097,-0.374041,0.113309,-0.920464,-0.122846,-0.076581,0.141122,-33.820770,-0.343550,-24.769493,,,,,,
1478536499.47,-0.381373,-0.124065,2.786850,-0.967063,0.292697,0.097159,-0.369334,0.123747,-0.921021,-0.062230,-0.118406,0.049194,-33.820770,-0.343550,-24.769493,,,,,,
1478536499.48,-0.383962,-0.131304,2.783501,-0.706245,-0.354905,-0.057394,-0.371373,0.130927,-0.919206,-0.014888,-0.146887,-0.028624,-33.234371,0.519948,-25.547932,,,,,,
1478536499.49,-0.390231,-0.136072,2.781049,-0.456438,-0.596111,-0.019055,-0.376886,0.135652,-0.916272,0.028452,-0.130022,-0.137515,-33.234371,0.519948,-25.547932,,,,,,
1478536499.50,-0.395536,-0.140519,2.780592,-0.409589,-0.442841,0.169134,-0.381505,0.140057,-0.913695,0.044286,-0.065839,-0.194277,-33.322166,0.920652,-25.421959,,,,,,
1478536499.51,-0.396953,-0.146194,2.781562,-0.482599,-0.029129,0.330347,-0.382486,0.145674,-0.912405,0.021219,-0.014631,-0.148828,-33.322166,0.920652,-25.421959,,,,,,
1478536499.52,-0.393395,-0.153075,2.783491,-0.553254,0.397350,0.446000,-0.378844,0.152477,-0.912813,0.002471,0.006748,-0.083647,-33.566265,1.232603,-25.085392,,,,,,
1478536499.53,-0.388899,-0.161091,2.786005,-0.631040,0.349215,0.525409,-0.374261,0.160395,-0.913347,-0.014121,0.006399,-0.016081,-33.535255,1.491762,-25.112778,,,,,,
1478536499.54,-0.386825,-0.169492,2.788591,-0.648908,0.088251,0.516065,-0.371844,0.168682,-0.912841,0.062777,-0.073055,0.039367,-33.535255,1.491762,-25.112778,,,,,,
1478536499.55,-0.388160,-0.177448,2.790547,-0.622036,-0.241078,0.433707,-0.372543,0.176518,-0.911073,0.015838,-0.086476,0.045045,-33.329929,2.165833,-25.336046,,,,,,
1478536499.56,-0.392793,-0.184466,2.791982,-0.546192,-0.536806,0.361301,-0.376277,0.183422,-0.908170,-0.029287,-0.036541,0.008206,-33.329929,2.165833,-25.336046,,,,,,
1478536499.57,-0.400244,-0.190785,2.792781,-0.527680,-0.779626,0.279816,-0.382573,0.189629,-0.904256,-0.029674,-0.046456,-0.017238,-33.388924,2.817346,-25.193901,,,,,,
1478536499.59,-0.409967,-0.196332,2.792505,-0.562927,-0.944801,0.191337,-0.390922,0.195073,-0.899515,-0.006997,-0.102833,-0.003790,-33.388924,2.817346,-25.193901,,,,,,
1478536499.60,-0.420618,-0.202728,2.791530,-0.601570,-1.006580,0.157481,-0.399963,0.201342,-0.894143,-0.002198,-0.101641,0.012215,-33.747639,3.284006,-24.653652,,,,,,
1478536499.61,-0.431707,-0.209323,2.790455,-0.612580,-1.043896,0.175122,-0.409288,0.207798,-0.888427,0.016664,-0.062550,0.033172,-33.747639,3.284006,-24.653652,,,,,,
1478536499.62,-0.443023,-0.215878,2.789697,-0.587107,-1.062579,0.208920,-0.418723,0.214205,-0.882489,0.041586,-0.043337,0.037946,-34.240376,3.706465,-23.902912,,,,,,
1478536499.63,-0.453370,-0.222183,2.789395,-0.543966,-0.938963,0.245476,-0.427231,0.220360,-0.876878,0.048568,-0.048821,0.016801,-34.240376,3.706465,-23.902912,,,,,,
1478536499.64,-0.461504,-0.228046,2.789978,-0.445927,-0.734930,0.317034,-0.433767,0.226075,-0.872202,0.047979,-0.037766,0.014201,-34.740593,4.143447,-23.095747,,,,,,
1478536499.65,-0.467518,-0.233238,2.792240,-0.315628,-0.599169,0.441722,-0.438469,0.231129,-0.868518,0.042381,-0.024357,0.020648,-34.740593,4.143447,-23.095747,,,,,,
1478536499.66,-0.473594,-0.238171,2.796044,-0.246319,-0.706022,0.550001,-0.443213,0.235926,-0.864813,0.039740,-0.015345,0.033148,-35.090534,4.590497,-22.473806,,,,,,
1478536499.67,-0.481987,-0.243351,2.800770,-0.236179,-0.978721,0.632017,-0.449883,0.240956,-0.859968,0.047036,-0.004475,0.063887,-35.090534,4.590497,-22.473806,,,,,,
1478536499.68,-0.493545,-0.248807,2.805571,-0.254858,-1.289195,0.627177,-0.459162,0.246248,-0.853541,0.061549,-0.004168,0.098612,-35.358929,5.102753,-21.936237,,,,,,
1478536499.69,-0.508119,-0.253838,2.810013,-0.207106,-1.548191,0.578274,-0.470944,0.251121,-0.845666,0.071225,-0.022789,0.116540,-35.358929,5.102753,-21.936237,,,,,,
1478536499.70,-0.523920,-0.258166,2.814687,-0.128127,-1.620730,0.584318,-0.483699,0.255308,-0.837170,0.072643,-0.039579,0.081310,-35.833698,5.680793,-21.003929,,,,,,
1478536499.71,-0.538995,-0.262857,2.820060,-0.143863,-1.543723,0.679681,-0.495644,0.259841,-0.828746,0.043633,0.027681,0.064479,-36.142326,5.938385,-20.395050,,,,,,
1478536499.72,-0.552612,-0.268822,2.826285,-0.205506,-1.412941,0.817625,-0.506060,0.265596,-0.820587,0.054048,0.021926,0.056320,-36.142326,5.938385,-20.395050,,,,,,
1478536499.73,-0.563756,-0.275944,2.833585,-0.216224,-1.185447,0.962031,-0.514149,0.272455,-0.813277,0.063145,0.035345,0.086562,-36.705318,6.502374,-19.181480,,,,,,
1478536499.74,-0.571755,-0.283228,2.842419,-0.123644,-0.929915,1.081699,-0.519550,0.279456,-0.807448,0.068546,0.028344,0.080733,-36.705318,6.502374,-19.181480,,,,,,
1478536499.75,-0.577355,-0.290318,2.853028,-0.013463,-0.803024,1.217284,-0.522969,0.286256,-0.802845,0.035817,0.020903,0.083958,-37.058662,7.299936,-18.189472,,,,,,
1478536499.76,-0.584677,-0.297661,2.865662,0.082358,-1.182158,1.369789,-0.527659,0.293285,-0.797220,0.021159,0.039204,0.114283,-37.058662,7.299936,-18.189472,,,,,,
1478536499.77,-0.597677,-0.303484,2.880154,0.339335,-1.796867,1.416990,-0.537008,0.298846,-0.788869,0.068792,0.027203,0.085911,-37.189888,8.247187,-17.503897,,,,,,
1478536499.78,-0.616874,-0.308289,2.896427,0.492058,-2.473035,1.491931,-0.551215,0.303429,-0.777234,0.089194,0.075585,0.065534,-37.189888,8.247187,-17.503897,,,,,,
1478536499.80,-0.643228,-0.313673,2.913207,0.471687,-3.148781,1.539838,-0.570516,0.308554,-0.761121,0.068242,0.100045,0.018705,-37.514793,9.256974,-16.261589,,,,,,
1478536499.81,-0.673628,-0.321195,2.930318,0.423857,-3.579938,1.600390,-0.591923,0.315700,-0.741593,0.115345,0.085880,-0.045470,-37.514793,9.256974,-16.261589,,,,,,
1478536499.82,-0.708262,-0.329498,2.948368,0.446401,-3.947770,1.826460,-0.615521,0.323568,-0.718636,0.139172,0.037363,-0.032600,-38.122353,10.360265,-14.030018,,,,,,
1478536499.83,-0.745289,-0.340287,2.971179,0.670354,-4.341405,2.322013,-0.639297,0.333757,-0.692752,0.182540,0.022780,-0.040738,-38.122353,10.360265,-14.030018,,,,,,
1478536499.84,-0.782339,-0.351037,3.000395,1.219950,-4.590599,2.640767,-0.661951,0.343872,-0.666013,0.206369,0.029206,-0.127704,-38.717880,11.701099,-11.022713,,,,,,
1478536499.85,-0.820532,-0.360231,3.037013,1.890380,-5.077403,2.919897,-0.684557,0.352490,-0.638069,0.281877,0.019168,-0.214943,-38.871544,12.609982,-9.353168,,,,,,
1478536499.86,-0.861549,-0.367834,3.078782,2.399870,-5.388241,3.041654,-0.708092,0.359595,-0.607699,0.281426,0.094217,-0.306501,-38.871544,12.609982,-9.353168,,,,,,
1478536499.87,-0.904823,-0.376070,3.125107,2.759355,-5.855691,3.296346,-0.731364,0.367268,-0.574649,0.312175,0.067547,-0.343656,-38.829971,14.677147,-5.857080,,,,,,
1478536499.88,-0.951963,-0.388885,-3.106173,2.988043,-6.482510,3.876850,-0.753735,0.379157,-0.536771,0.321927,0.116891,-0.159563,-38.829971,14.677147,-5.857080,,,,,,
1478536499.89,-1.003313,-0.408027,-3.049449,3.148681,-7.134053,4.407731,-0.774030,0.396799,-0.493385,0.401914,0.146826,-0.112771,-38.219910,17.099400,-2.083097,,,,,,
1478536499.90,-1.057039,-0.432284,-2.989743,3.295077,-7.496872,4.715195,-0.790790,0.418946,-0.446245,0.407001,0.216903,-0.067762,-38.219910,17.099400,-2.083097,,,,,,
1478536499.91,-1.110678,-0.460401,-2.928375,3.440664,-7.654192,4.849956,-0.802703,0.444308,-0.397817,0.282256,0.272871,-0.062205,-36.528385,20.456844,2.164488,,,,,,
1478536499.92,-1.163604,-0.490493,-2.865820,3.659142,-7.794693,4.802744,-0.809977,0.471061,-0.349340,0.149974,0.256738,-0.113382,-36.528385,20.456844,2.164488,,,,,,
1478536499.93,-1.215330,-0.521434,-2.801347,3.972196,-7.924292,4.703976,-0.812898,0.498124,-0.301777,0.034944,0.213378,-0.176479,-33.589031,24.310738,6.185104,,,,,,
1478536499.94,-1.263453,-0.552531,-2.733117,4.431218,-7.857266,4.563523,-0.811312,0.524844,-0.257511,-0.066480,0.199781,-0.239422,-33.589031,24.310738,6.185104,,,,,,
1478536499.95,-1.303893,-0.581664,-2.661558,4.803903,-7.356953,4.161860,-0.805965,0.549415,-0.220372,-0.183736,0.174889,-0.285701,-29.685068,28.110292,9.278927,,,,,,
1478536499.96,-1.335582,-0.606774,-2.590114,4.842035,-6.625662,3.555236,-0.798871,0.570221,-0.191450,-0.341311,0.170990,-0.235140,-29.685068,28.110292,9.278927,,,,,,
1478536499.97,-1.360049,-0.628848,-2.524186,4.338163,-5.727947,3.063076,-0.790813,0.588214,-0.169174,-0.478764,0.135938,-0.108185,-25.431484,31.576462,10.661001,,,,,,
1478536499.98,-1.404890,-0.650759,-2.497901,0.340160,-6.111416,2.275960,-0.784699,0.605791,-0.131394,-0.521377,0.072188,0.047975,-25.431484,31.576462,10.661001,,,,,,
1478536499.99,-1.489811,-0.682185,-2.508818,-1.183814,-7.472049,3.125633,-0.773653,0.630490,-0.062792,-0.543287,-0.029782,0.243884,-21.923771,34.074707,10.758870,,,,,,
1478536500.01,-1.551924,-0.714683,-2.516731,-0.662863,-4.757648,2.920535,-0.755167,0.655378,-0.014253,-1.283499,-0.339124,2.009309,-21.923771,34.074707,10.758870,,,,,,
1478536500.02,-1.590106,-0.737113,-2.524646,-0.471209,-2.487832,1.825330,-0.740274,0.672153,0.014296,-0.497656,-0.602878,0.707353,-18.118584,35.062401,14.136318,,,,,,
1478536500.03,-1.595281,-0.749537,-2.528029,-0.178313,0.374133,1.118962,-0.731785,0.681300,0.017921,-0.358379,0.296575,0.895699,-16.467581,35.448505,15.156278,,,,,,
1478536500.04,-1.590043,-0.762252,-2.532461,-0.299011,0.747122,1.236021,-0.723149,0.690552,0.013920,-0.367016,0.287323,0.899700,-16.467581,35.448505,15.156278,,,,,,
1478536500.05,-1.586932,-0.774667,-2.534088,0.024620,0.288440,1.160131,-0.714561,0.699478,0.011531,-0.049096,0.062149,-0.092173,-15.280222,35.802330,15.562730,,,,,,
1478536500.06,-1.584156,-0.788240,-2.529508,0.377928,-0.197412,1.392969,-0.705031,0.709113,0.009419,-0.058595,-0.019981,0.038692,-14.512424,36.160610,15.469006,,,,,,
1478536500.07,-1.590788,-0.804706,-2.520895,0.701093,-1.549884,1.571318,-0.693184,0.720627,0.013860,-0.070442,-0.031494,0.034251,-14.512424,36.160610,15.469006,,,,,,
1478536500.08,-1.602657,-0.821885,-2.506768,1.031892,-2.224835,1.629187,-0.680496,0.732431,0.021689,-0.196930,-0.068551,-0.068731,-14.512424,36.160610,15.469006,,,,,,
1478536500.09,-1.614366,-0.840284,-2.490591,1.105210,-2.215454,1.741694,-0.666618,0.744832,0.029063,-0.117775,0.040370,0.016195,-12.970737,36.802567,15.323882,,,,,,
1478536500.10,-1.623015,-0.860157,-2.474908,1.081717,-1.834543,1.868608,-0.651429,0.757945,0.034048,-0.065597,0.029546,0.088312,-12.970737,36.802567,15.323882,,,,,,
1478536500.11,-1.623668,-0.879548,-2.455201,1.389372,-1.372622,1.719304,-0.636608,0.770451,0.033690,-0.092975,0.092159,0.114046,-10.927828,37.576904,15.034939,,,,,,
1478536500.12,-1.616347,-0.898043,-2.433393,1.287932,-0.768584,1.728493,-0.622495,0.782109,0.028375,-0.174960,0.170283,-0.024331,-10.927828,37.576904,15.034939,,,,,,
1478536500.13,-1.608755,-0.917712,-2.416477,1.089188,-0.429232,1.819238,-0.607201,0.794213,0.023060,-0.317207,0.262107,-0.190220,-9.058559,38.349304,14.309569,,,,,,
1478536500.14,-1.591311,-0.937163,-2.397141,1.153650,0.407095,1.824448,-0.591952,0.805882,0.012145,-0.263425,0.014248,0.017457,-9.058559,38.349304,14.309569,,,,,,
1478536500.15,-1.565228,-0.957381,-2.380416,0.896855,1.442215,1.929592,-0.575654,0.817687,-0.003205,-0.376982,0.205491,-0.071196,-7.456629,38.995770,13.461761,,,,,,
1478536500.16,-1.528327,-0.976231,-2.364537,0.806174,2.510287,1.766758,-0.559643,0.828392,-0.023782,-0.337222,0.114296,-0.061743,-7.456629,38.995770,13.461761,,,,,,
1478536500.17,-1.480802,-0.992169,-2.346118,0.876820,3.185634,1.509860,-0.544662,0.837214,-0.049149,-0.255875,0.065740,0.046204,-6.229986,39.528877,12.495816,,,,,,
1478536500.19,-1.423118,-1.020248,-2.330803,-0.081765,0.899900,1.311391,-0.517461,0.852238,-0.076978,-0.278758,-0.212452,-0.274416,-5.869673,39.744358,11.975943,,,,,,
1478536500.18,-1.439652,-1.006173,-2.333374,0.311713,2.659011,1.376908,-0.530502,0.844790,-0.069974,-0.265717,-0.205005,-0.281421,-5.869673,39.744358,11.975943,,,,,,
1478536500.21,-1.420936,-1.033478,-2.324312,0.206881,-0.710973,1.312089,-0.506098,0.859084,-0.076417,0.265466,-0.434493,0.462327,-5.335402,40.025837,11.267487,,,,,,
1478536500.22,-1.427305,-1.048304,-2.312231,0.391588,-1.829824,1.550725,-0.493913,0.866578,-0.071363,0.475191,-0.418153,0.446546,-5.335402,40.025837,11.267487,,,,,,
1478536500.23,-1.439947,-1.067456,-2.301065,0.195608,-2.167506,2.003705,-0.478231,0.875976,-0.062936,0.599356,-0.258468,0.285119,-4.152189,40.190224,11.180138,,,,,,
1478536500.24,-1.457457,-1.092605,-2.297871,-0.272031,-1.789997,2.508144,-0.457222,0.887828,-0.052044,0.727562,-0.245998,0.138714,-4.152189,40.190224,11.180138,,,,,,
1478536500.25,-1.477145,-1.121221,-2.307444,-0.815219,-0.783216,2.689351,-0.432679,0.900632,-0.040640,0.763093,-0.239377,0.133108,-2.069488,40.366528,11.124348,,,,,,
1478536500.26,-1.495502,-1.150451,-2.326580,-1.026458,0.090927,2.705886,-0.406920,0.912948,-0.030697,0.541487,-0.273651,0.065624,-2.069488,40.366528,11.124348,,,,,,
1478536500.27,-1.512701,-1.179832,-2.350571,-1.116710,0.578560,2.741731,-0.380437,0.924542,-0.022127,0.253088,-0.366467,-0.139540,0.414807,40.253494,11.703620,,,,,,
1478536500.28,-1.531766,-1.206170,-2.383465,-1.313292,1.303476,2.282680,-0.356329,0.934257,-0.013915,0.189077,-0.334266,-0.262788,0.414807,40.253494,11.703620,,,,,,
1478536500.29,-1.555707,-1.227519,-2.431652,-1.789469,2.227588,1.905760,-0.336537,0.941657,-0.005079,0.166599,-0.314429,-0.083316,2.561840,39.884552,12.655039,,,,,,
1478536500.30,-1.590119,-1.247700,-2.497670,-2.114231,2.807701,1.952602,-0.317445,0.948257,0.006134,-0.348632,-0.230331,0.056167,2.561840,39.884552,12.655039,,,,,,
1478536500.31,-1.634723,-1.267463,-2.578305,-2.317816,3.114212,1.975150,-0.298093,0.954346,0.019082,-0.468554,-0.297547,0.268699,3.703822,39.284462,14.159920,,,,,,
1478536500.32,-1.671241,-1.283511,-2.646694,-1.419279,2.444672,1.506389,-0.281921,0.959017,0.028413,-0.181686,0.015013,0.168959,3.703822,39.284462,14.159920,,,,,,
1478536500.33,-1.713337,-1.297030,-2.696326,-1.181035,-0.024470,1.474243,-0.267617,0.962760,0.038407,-0.113486,0.031656,0.050415,4.330782,38.418785,16.208996,,,,,,
1478536500.34,-1.769033,-1.310833,-2.747055,-0.964457,-0.783961,1.503681,-0.252011,0.966399,0.050623,-0.358860,0.720139,-0.824579,4.607738,38.131920,16.799280,,,,,,
1478536500.35,-1.818930,-1.322954,-2.790762,-0.689315,-0.644632,1.310295,-0.237800,0.969444,0.060248,0.027503,0.407540,0.191507,4.607738,38.131920,16.799280,,,,,,
1478536500.36,-1.860100,-1.334614,-2.826300,-0.412585,-0.657632,1.289981,-0.224268,0.972238,0.066755,-0.069967,0.062231,0.128497,5.972595,37.600231,17.551100,,,,,,
1478536500.37,-1.890321,-1.347988,-2.850285,0.004253,-0.641223,1.401196,-0.209785,0.975281,0.069410,-0.063942,0.366165,0.158358,5.972595,37.600231,17.551100,,,,,,
1478536500.38,-1.902562,-1.364022,-2.857455,0.442210,-0.446533,1.503575,-0.194109,0.978698,0.066870,-0.115889,0.001801,0.128244,7.238447,37.242870,17.834347,,,,,,
1478536500.39,-1.906594,-1.379261,-2.857795,0.450822,-0.308726,1.300235,-0.179734,0.981713,0.062730,-0.142623,-0.237374,0.100112,7.238447,37.242870,17.834347,,,,,,
1478536500.40,-1.905128,-1.388742,-2.853806,0.338350,-0.242620,0.716156,-0.171026,0.983474,0.059410,-0.086069,0.247865,0.148369,9.051939,37.084171,17.329653,,,,,,
1478536500.42,-1.911009,-1.391187,-2.856871,-0.069987,-0.304491,-0.007397,-0.168406,0.983913,0.059612,-0.286123,0.209476,0.112706,9.051939,37.084171,17.329653,,,,,,
1478536500.43,-1.913663,-1.383631,-2.860788,-0.411417,0.324926,-0.828731,-0.175244,0.982536,0.062556,0.025937,0.076379,0.016271,9.270546,37.067902,17.248705,,,,,,
1478536500.44,-1.915985,-1.371024,-2.868141,-0.590255,0.501009,-1.158069,-0.186740,0.980112,0.067149,-0.296063,-0.159616,0.023336,8.843565,37.074841,17.456747,,,,,,
1478536500.45,-1.921156,-1.356448,-2.877560,-0.592317,0.303508,-1.202596,-0.199789,0.977115,0.073010,0.201406,0.221631,0.111881,8.843565,37.074841,17.456747,,,,,,
1478536500.46,-1.926980,-1.342475,-2.886084,-0.641454,0.293095,-1.176148,-0.212136,0.974048,0.078926,0.289025,0.574033,0.001625,7.766702,37.053024,18.006723,,,,,,
1478536500.47,-1.926058,-1.329427,-2.890178,-0.458685,0.483004,-1.128883,-0.224106,0.971012,0.083144,0.254425,0.465710,0.115495,7.766702,37.053024,18.006723,,,,,,
1478536500.48,-1.934659,-1.321886,-2.901363,-0.559901,0.060643,-0.247527,-0.230220,0.969181,0.087672,0.121409,0.015117,-0.090938,6.766223,37.017761,18.476849,,,,,,
1478536500.49,-1.972402,-1.322822,-2.932806,-0.629899,-0.903081,0.475394,-0.225913,0.969411,0.095942,0.081076,-0.265661,-0.169078,6.766223,37.017761,18.476849,,,,,,
1478536500.50,-2.012999,-1.326718,-2.961986,-0.395931,-1.193563,0.625944,-0.218417,0.970360,0.103415,-0.118543,-0.060845,-0.236365,7.216560,36.743404,18.850300,,,,,,
1478536500.51,-2.049742,-1.332164,-2.987225,-0.267415,-1.138311,0.764229,-0.209778,0.971662,0.108932,-0.033722,-0.114622,0.087937,7.216560,36.743404,18.850300,,,,,,
1478536500.52,-2.089848,-1.339440,-3.016356,-0.233005,-1.142421,0.981878,-0.199097,0.973356,0.113745,0.053620,-0.020842,0.092508,8.236114,36.505566,18.894453,,,,,,
1478536500.53,-2.134853,-1.347142,-3.050906,-0.250698,-1.003875,0.964566,-0.187437,0.975093,0.118576,-0.082323,-0.180629,-0.006942,8.236114,36.505566,18.894453,,,,,,
1478536500.54,-2.164646,-1.352226,-3.073215,-0.077318,-0.675359,0.555567,-0.179711,0.976208,0.121331,-0.050132,0.019840,0.165656,9.368154,36.239910,18.878471,,,,,,
1478536500.55,-2.181098,-1.356030,-3.084513,0.032049,-0.494280,0.425312,-0.174646,0.977026,0.122142,0.001581,0.105615,0.160543,9.368154,36.239910,18.878471,,,,,,
1478536500.56,-2.203463,-1.361160,-3.101334,-0.003317,-0.602833,0.659660,-0.167827,0.978107,0.123052,-0.021764,0.005979,0.074840,9.957851,36.138874,18.770010,,,,,,
1478536500.57,-2.235816,-1.367479,-3.127363,-0.050619,-0.660028,0.808343,-0.158892,0.979402,0.124600,-0.059340,-0.060396,0.006595,9.957851,36.138874,18.770010,,,,,,
1478536500.58,-2.269808,-1.374148,3.129552,0.082625,-0.869348,0.795403,-0.149562,0.980727,0.125722,-0.083791,-0.006575,0.044703,10.791812,35.959000,18.654156,,,,,,
1478536500.59,-2.282568,-1.380863,3.123677,0.379720,-0.522172,0.461463,-0.142955,0.982017,0.123315,-0.062550,0.016259,0.085578,11.228687,35.911247,18.487541,,,,,,
1478536500.60,-2.277658,-1.384589,3.132021,0.310062,-0.275621,0.066283,-0.140776,0.982713,0.120235,0.026350,-0.097566,0.009053,11.228687,35.911247,18.487541,,,,,,
1478536500.62,-2.266630,-1.383347,-3.137881,0.023031,-0.156562,-0.323751,-0.143030,0.982483,0.119457,0.079767,0.123169,0.007145,11.483341,35.993156,18.169092,,,,,,
1478536500.63,-2.254623,-1.378168,-3.125263,-0.168156,-0.003345,-0.590332,-0.148397,0.981504,0.120945,0.111287,0.061907,-0.013889,11.483341,35.993156,18.169092,,,,,,
1478536500.64,-2.238001,-1.370566,-3.107604,-0.199017,-0.115289,-0.828046,-0.156243,0.980021,0.123075,0.127221,-0.081599,-0.050626,11.112335,36.074097,18.239128,,,,,,
1478536500.65,-2.219216,-1.361145,-3.085672,-0.224100,-0.299435,-1.005589,-0.165879,0.978104,0.125689,0.125809,-0.202438,-0.066927,11.112335,36.074097,18.239128,,,,,,
1478536500.66,-2.204300,-1.350333,-3.066186,-0.330453,-0.421896,-1.077417,-0.176248,0.975796,0.129453,0.103983,-0.240994,-0.050413,10.483803,36.204773,18.351961,,,,,,
1478536500.67,-2.195515,-1.337877,-3.051578,-0.480940,-0.555594,-1.168091,-0.187224,0.972997,0.134999,0.086821,-0.291539,-0.056675,10.483803,36.204773,18.351961,,,,,,
1478536500.68,-2.186773,-1.324675,-3.035316,-0.372295,-0.708778,-1.255921,-0.198864,0.969865,0.140767,0.092419,-0.386384,-0.066151,9.814953,36.282814,18.566483,,,,,,
1478536500.69,-2.163562,-1.313409,-3.002637,0.181808,-0.812301,-1.341837,-0.211127,0.967058,0.142209,0.102759,-0.563051,-0.009351,9.814953,36.282814,18.566483,,,,,,
1478536500.70,-2.130774,-1.305833,-2.960881,0.552167,-0.660406,-1.053291,-0.221877,0.965102,0.139099,0.138899,-0.783416,0.111130,9.126673,36.546524,18.399612,,,,,,
1478536500.71,-2.094293,-1.304094,-2.918558,0.895181,-0.256492,-0.607502,-0.228256,0.964645,0.131752,0.146514,-0.738968,0.199211,9.126673,36.546524,18.399612,,,,,,
1478536500.72,-2.038325,-1.301559,-2.863387,1.209224,0.441442,-1.021932,-0.237451,0.963974,0.119880,0.193521,-0.925659,-0.001044,8.652433,36.997536,17.714636,,,,,,
1478536500.73,-1.940951,-1.293984,-2.773200,2.058223,1.158167,-1.814064,-0.254781,0.961931,0.098866,-0.044230,-1.311800,0.212566,8.652433,36.997536,17.714636,,,,,,
1478536500.74,-1.794411,-1.278425,-2.639726,3.321700,1.988063,-2.678162,-0.281047,0.957563,0.063915,-0.143910,-1.472379,0.015781,7.027799,37.934067,16.404480,,,,,,
1478536500.75,-1.606878,-1.249130,-2.474024,4.648984,3.158881,-3.596152,-0.315942,0.948710,0.011405,-0.164725,-1.234721,-0.051917,5.485839,38.736958,15.061341,,,,,,
1478536500.76,-1.444817,-1.203349,-2.344454,3.936354,3.925973,-4.291485,-0.356387,0.933247,-0.045136,-0.239987,-0.612599,-0.279708,5.485839,38.736958,15.061341,,,,,,
1478536500.77,-1.406958,-1.160607,-2.334278,-0.230017,2.225430,-3.735456,-0.393442,0.917046,-0.065044,-0.227621,0.203652,-0.661213,1.149813,40.123444,12.094517,,,,,,
1478536500.78,-1.476981,-1.136101,-2.422055,-3.710951,0.538753,-2.431440,-0.419282,0.906998,-0.039451,-0.218764,1.156432,0.089423,1.149813,40.123444,12.094517,,,,,,
1478536500.79,-1.563581,-1.125030,-2.494683,-2.242477,-2.941878,-0.725208,-0.431138,0.902280,-0.003111,0.194032,0.686510,-0.295961,-1.339491,39.427284,14.183982,,,,,,
1478536500.80,-1.609528,-1.134430,-2.508771,-0.183985,-2.592894,1.438780,-0.422332,0.906294,0.016366,0.428115,0.744799,-0.032876,-1.339491,39.427284,14.183982,,,,,,
1478536500.81,-1.620537,-1.163719,-2.509601,0.117181,-0.738273,3.155838,-0.395437,0.918282,0.019685,0.654791,0.493126,0.338042,0.189453,39.180252,14.911819,,,,,,
1478536500.83,-1.619323,-1.202964,-2.505586,0.421395,0.074212,3.810026,-0.359170,0.933109,0.017443,0.454584,0.403088,0.200178,0.189453,39.180252,14.911819,,,,,,
1478536500.84,-1.593331,-1.243326,-2.493448,0.507228,1.761516,3.812217,-0.321567,0.946859,0.007248,0.057529,0.551859,0.444748,3.177777,39.151970,14.646338,,,,,,
1478536500.85,-1.567700,-1.280611,-2.489091,0.024975,1.963122,3.465803,-0.286128,0.958191,-0.000886,0.161220,-0.443161,0.323960,3.177777,39.151970,14.646338,,,,,,
1478536500.86,-1.565677,-1.315306,-2.501759,-0.434737,1.084155,3.249563,-0.252717,0.967539,-0.001294,0.176987,-0.581004,0.034222,5.528898,38.870102,14.698180,,,,,,
1478536500.87,-1.579511,-1.349205,-2.516524,-0.211645,-0.269374,3.189780,-0.219774,0.975549,0.001915,0.216631,-0.600915,-0.255730,5.528898,38.870102,14.698180,,,,,,
1478536500.88,-1.577987,-1.379569,-2.505785,0.342932,-1.022317,2.832749,-0.190059,0.981772,0.001367,0.269466,-0.083090,-0.372476,8.056229,38.346645,14.903766,,,,,,
1478536500.89,-1.549491,-1.405843,-2.457657,0.900671,-2.142707,2.350735,-0.164169,0.986426,-0.003498,0.004486,-0.040259,-0.274776,9.352127,38.174950,14.584279,,,,,,
1478536500.90,-1.480863,-1.427162,-2.353618,1.628525,-3.612346,2.050003,-0.142562,0.989702,-0.012856,-0.232209,-0.366808,-0.340370,9.352127,38.174950,14.584279,,,,,,
1478536500.91,-1.394165,-1.441097,-2.231411,1.169528,-2.963151,1.292842,-0.127324,0.991601,-0.022726,-0.266674,-0.207131,-0.205438,11.900198,38.096764,12.826241,,,,,,
1478536500.92,-1.354400,-1.451028,-2.164285,0.482774,-2.615672,1.099226,-0.116696,0.992836,-0.025654,-0.367481,0.813926,0.298466,11.900198,38.096764,12.826241,,,,,,
1478536500.93,-1.299984,-1.459379,-2.078135,0.817092,-3.008166,0.954919,-0.107134,0.993800,-0.029744,-0.434675,0.542684,0.000966,13.500051,37.988926,11.492631,,,,,,
1478536500.94,-1.225458,-1.465037,-1.974055,0.851276,-2.622965,0.762489,-0.099330,0.994413,-0.035734,-0.314641,0.494235,-0.161867,13.500051,37.988926,11.492631,,,,,,
1478536500.95,-1.157734,-1.468689,-1.885919,0.638774,-1.627702,0.640825,-0.093357,0.994792,-0.040916,-0.041363,0.105047,0.103309,14.759499,37.929661,10.049301,,,,,,
1478536500.96,-1.079416,-1.473922,-1.794573,0.518272,-1.112736,0.932099,-0.085279,0.995311,-0.045638,0.081784,0.391377,0.166625,14.759499,37.929661,10.049301,,,,,,
1478536500.97,-0.986207,-1.482420,-1.691424,0.323998,-0.824348,1.202832,-0.073604,0.996097,-0.048707,0.096782,0.605602,0.167192,15.690191,37.766415,9.219881,,,,,,
1478536500.98,-0.869813,-1.490971,-1.567131,0.317709,-0.684800,1.221235,-0.060938,0.996816,-0.051430,0.120493,0.580607,0.104820,15.690191,37.766415,9.219881,,,,,,
1478536500.99,-0.747673,-1.496157,-1.438258,0.351712,-0.574447,0.919382,-0.050703,0.997216,-0.054680,0.032362,0.416130,0.038582,16.772602,37.417744,8.722533,,,,,,
1478536501.00,-0.649995,-1.497906,-1.335930,0.309967,-0.336680,0.559094,-0.044073,0.997345,-0.057976,-0.098780,0.396134,0.097115,16.772602,37.417744,8.722533,,,,,,
1478536501.01,-0.595314,-1.498489,-1.279789,0.140420,-0.063289,0.282211,-0.040512,0.997387,-0.059816,-0.210876,0.526081,0.149767,17.362606,37.236233,8.336277,,,,,,
1478536501.03,-0.580730,-1.498235,-1.265434,0.063368,0.037604,-0.003915,-0.039775,0.997369,-0.060612,-0.261342,0.600394,0.146764,17.362606,37.236233,8.336277,,,,,,
1478536501.04,-0.592871,-1.496469,-1.278132,0.102246,0.040817,-0.209452,-0.041492,0.997239,-0.061586,-0.167233,0.398864,0.096559,17.418461,37.225330,8.268164,,,,,,
1478536501.05,-0.620034,-1.493215,-1.304990,0.163476,-0.048861,-0.382438,-0.045035,0.996992,-0.063077,0.020605,0.185686,0.053525,17.320129,37.280647,8.225377,,,,,,
1478536501.06,-0.656720,-1.488492,-1.342711,0.180558,0.137982,-0.528840,-0.050192,0.996615,-0.065111,0.103338,0.083601,0.055696,17.320129,37.280647,8.225377,,,,,,
1478536501.07,-0.701535,-1.484012,-1.389630,0.062603,0.186998,-0.559579,-0.055940,0.996237,-0.066207,0.123658,-0.022695,0.078796,16.925791,37.484070,8.121114,,,,,,
1478536501.08,-0.746867,-1.479945,-1.437144,0.027096,0.201662,-0.564019,-0.061634,0.995876,-0.066577,0.112751,-0.018673,0.034594,16.925791,37.484070,8.121114,,,,,,
1478536501.09,-0.789122,-1.474597,-1.483363,0.094376,0.430510,-0.669932,-0.068171,0.995376,-0.067665,0.105265,-0.108505,0.006584,16.434935,37.693321,8.160688,,,,,,
1478536501.10,-0.831313,-1.468117,-1.532829,0.073862,0.724684,-0.812557,-0.075728,0.994733,-0.069075,0.080474,-0.272214,0.054396,16.434935,37.693321,8.160688,,,,,,
1478536501.11,-0.878398,-1.460804,-1.589815,-0.014573,0.992140,-0.915239,-0.084492,0.993957,-0.070076,0.121312,-0.351913,0.084755,15.706812,37.969009,8.315087,,,,,,
1478536501.12,-0.925504,-1.455030,-1.649050,-0.204128,1.160426,-0.769962,-0.092282,0.993307,-0.069470,0.115811,-0.264181,0.030789,15.706812,37.969009,8.315087,,,,,,
1478536501.13,-0.958702,-1.453537,-1.694908,-0.341773,1.085974,-0.254356,-0.095751,0.993133,-0.067221,0.005617,0.126435,-0.011255,14.877398,38.192234,8.803782,,,,,,
1478536501.14,-0.969466,-1.456607,-1.712015,-0.316227,0.416921,0.203736,-0.093955,0.993487,-0.064461,-0.219324,0.520108,-0.074806,14.877398,38.192234,8.803782,,,,,,
1478536501.15,-0.984475,-1.459959,-1.729857,-0.337821,0.280149,0.129693,-0.092137,0.993864,-0.061201,-0.331890,0.466555,-0.008730,14.798131,38.114246,9.263374,,,,,,
1478536501.16,-1.002508,-1.462460,-1.751530,-0.313060,0.326630,0.061811,-0.091130,0.994137,-0.058192,-0.176662,0.118854,0.032023,14.798131,38.114246,9.263374,,,,,,
1478536501.17,-1.025779,-1.464181,-1.777696,-0.313637,0.238354,-0.028691,-0.090996,0.994322,-0.055168,-0.108879,0.126894,0.034645,14.798427,38.026451,9.616957,,,,,,
1478536501.18,-1.052353,-1.464898,-1.806967,-0.273442,0.252862,-0.106849,-0.091810,0.994398,-0.052378,-0.069383,0.080629,0.062067,14.798427,38.026451,9.616957,,,,,,
1478536501.19,-1.075006,-1.464503,-1.832031,-0.176902,0.184720,-0.169307,-0.093319,0.994356,-0.050471,-0.026966,0.066862,0.067256,14.678374,37.996262,9.915638,,,,,,
1478536501.20,-1.090558,-1.463369,-1.847722,-0.059676,-0.066893,-0.164594,-0.095092,0.994235,-0.049535,0.028259,0.050351,0.056264,14.595901,38.007210,9.995098,,,,,,
1478536501.21,-1.090219,-1.462529,-1.845515,0.108328,-0.184752,-0.000740,-0.095817,0.994145,-0.049953,0.069129,0.032573,0.044201,14.595901,38.007210,9.995098,,,,,,
1478536501.22,-1.047062,-1.464091,-1.802744,0.354047,0.216477,0.400764,-0.092227,0.994312,-0.053264,0.032733,-0.013142,0.065349,14.621784,38.024464,9.891108,,,,,,
1478536501.24,-0.984675,-1.465132,-1.746979,0.443521,0.794858,0.362857,-0.087864,0.994423,-0.058338,-0.085949,-0.163139,0.143604,14.621784,38.024464,9.891108,,,,,,
1478536501.25,-0.924110,-1.465438,-1.696185,0.358614,0.956871,0.301253,-0.083929,0.994455,-0.063366,-0.149729,-0.091104,0.176143,14.792307,37.993420,9.755930,,,,,,
1478536501.26,-0.887807,-1.466228,-1.666953,0.123438,0.550528,0.218865,-0.080964,0.994538,-0.065874,-0.066420,-0.067719,0.120134,14.792307,37.993420,9.755930,,,,,,
1478536501.27,-0.878319,-1.467583,-1.658472,-0.045733,-0.032201,0.129370,-0.079299,0.994678,-0.065779,0.050566,-0.039142,0.033293,14.851220,37.956821,9.808738,,,,,,
1478536501.28,-0.877411,-1.468468,-1.654682,-0.001496,-0.320944,0.085825,-0.078562,0.994769,-0.065289,0.137721,0.050031,-0.009846,14.851220,37.956821,9.808738,,,,,,
1478536501.29,-0.868759,-1.468746,-1.641806,0.096608,-0.411984,0.099816,-0.077783,0.994797,-0.065788,0.034159,0.077133,0.017799,14.981576,37.923069,9.740819,,,,,,
1478536501.30,-0.861103,-1.468427,-1.630161,0.099780,-0.353242,0.028962,-0.077518,0.994765,-0.066588,-0.042263,0.029115,0.058272,14.981576,37.923069,9.740819,,,,,,
1478536501.31,-0.858481,-1.468085,-1.624372,0.056233,-0.289059,0.012532,-0.077600,0.994730,-0.067013,-0.066931,0.005972,0.044140,15.098232,37.925552,9.549152,,,,,,
1478536501.32,-0.854402,-1.467929,-1.617307,0.067563,-0.280594,0.043214,-0.077444,0.994714,-0.067431,-0.070963,0.010489,0.034396,15.098232,37.925552,9.549152,,,,,,
1478536501.33,-0.847443,-1.467706,-1.607451,0.092682,-0.264377,0.044530,-0.077138,0.994691,-0.068115,-0.075861,0.011748,0.052413,15.180525,37.928070,9.407633,,,,,,
1478536501.34,-0.838142,-1.467235,-1.595628,0.125190,-0.227091,0.045596,-0.076850,0.994642,-0.069142,-0.068582,0.003221,0.061452,15.180525,37.928070,9.407633,,,,,,
1478536501.35,-0.826034,-1.466808,-1.581072,0.132805,-0.227285,0.073917,-0.076319,0.994598,-0.070356,-0.051549,0.009033,0.044614,15.265498,37.935280,9.239564,,,,,,
1478536501.36,-0.816574,-1.466558,-1.568752,0.096687,-0.285546,0.064568,-0.075832,0.994572,-0.071245,-0.057561,0.021801,0.051408,15.265498,37.935280,9.239564,,,,,,
1478536501.37,-0.810184,-1.466366,-1.558257,0.085205,-0.415316,0.046969,-0.075513,0.994552,-0.071860,-0.058444,0.035248,0.055350,15.373735,37.934105,9.063243,,,,,,
1478536501.38,-0.808946,-1.466024,-1.552206,0.059055,-0.462148,0.009362,-0.075670,0.994516,-0.072188,-0.042967,0.034399,0.070204,15.429241,37.935650,8.961891,,,,,,
1478536501.39,-0.811981,-1.465668,-1.550222,0.031374,-0.478151,-0.018976,-0.076146,0.994479,-0.072202,-0.029933,0.028501,0.086179,15.429241,37.935650,8.961891,,,,,,
1478536501.40,-0.820817,-1.464825,-1.554157,0.027301,-0.458864,-0.108891,-0.077395,0.994390,-0.072098,-0.023985,0.008356,0.067398,15.502575,37.949162,8.776193,,,,,,
1478536501.41,-0.829977,-1.463719,-1.558460,0.047615,-0.467568,-0.088828,-0.078863,0.994273,-0.072127,-0.008509,-0.028575,0.055724,15.502575,37.949162,8.776193,,,,,,
1478536501.42,-0.833109,-1.462517,-1.556674,0.112089,-0.471033,-0.071895,-0.079973,0.994143,-0.072684,0.051043,0.013181,0.033576,15.508204,37.989330,8.590497,,,,,,
1478536501.44,-0.828896,-1.460695,-1.547198,0.213462,-0.505118,-0.063724,-0.081001,0.993945,-0.074244,0.052360,-0.021289,0.020884,15.508204,37.989330,8.590497,,,,,,
1478536501.45,-0.820921,-1.458139,-1.533802,0.277890,-0.509446,-0.090929,-0.082265,0.993661,-0.076619,0.037511,0.011268,0.031102,15.541707,38.044575,8.279848,,,,,,
1478536501.46,-0.816374,-1.455264,-1.523537,0.263060,-0.551243,-0.130911,-0.083997,0.993334,-0.078948,0.010862,0.053511,0.028777,15.541707,38.044575,8.279848,,,,,,
1478536501.47,-0.815854,-1.452298,-1.516925,0.235474,-0.578336,-0.163966,-0.086102,0.992987,-0.081011,0.001233,0.067926,0.036806,15.536231,38.129761,7.889042,,,,,,
1478536501.48,-0.821641,-1.449675,-1.517296,0.139879,-0.487166,-0.191414,-0.088476,0.992674,-0.082284,0.002523,0.073809,0.058465,15.536231,38.129761,7.889042,,,,,,
1478536501.49,-0.836953,-1.448304,-1.528260,-0.062977,-0.401973,-0.173705,-0.090736,0.992507,-0.081832,-0.001122,0.072343,0.065596,15.474309,38.214146,7.597056,,,,,,
1478536501.50,-0.862799,-1.448173,-1.550475,-0.212476,-0.354535,-0.186475,-0.092919,0.992491,-0.079544,-0.014411,0.073885,0.075561,15.474309,38.214146,7.597056,,,,,,
1478536501.51,-0.928067,-1.450363,-1.611756,-0.219813,-0.386396,-0.226521,-0.096169,0.992757,-0.072011,-0.015723,0.083293,0.057286,15.385662,38.247562,7.608930,,,,,,
1478536501.52,-0.959956,-1.449289,-1.639813,-0.197200,-0.380806,-0.286385,-0.099290,0.992627,-0.069520,0.002747,0.097751,0.021943,15.385662,38.247562,7.608930,,,,,,
1478536501.53,-0.994084,-1.447839,-1.670270,-0.230231,-0.364631,-0.321475,-0.102811,0.992450,-0.066876,-0.000217,0.071804,0.001065,15.210869,38.273224,7.828157,,,,,,
1478536501.54,-1.033393,-1.446457,-1.707124,-0.319891,-0.230210,-0.340983,-0.106538,0.992280,-0.063486,-0.000792,0.007217,0.027338,15.104908,38.305023,7.877648,,,,,,
1478536501.55,-1.087563,-1.446347,-1.758964,-0.395360,-0.262992,-0.320670,-0.109915,0.992266,-0.057676,0.008505,-0.039507,0.022458,15.104908,38.305023,7.877648,,,,,,
1478536501.56,-1.134173,-1.445565,-1.801970,-0.426791,-0.414373,-0.283001,-0.113187,0.992169,-0.052820,0.029782,-0.051129,0.018274,14.896973,38.328571,8.154212,,,,,,
1478536501.57,-1.179969,-1.444991,-1.842943,-0.432213,-0.507521,-0.239808,-0.116012,0.992097,-0.047800,0.055404,-0.030793,0.030252,14.896973,38.328571,8.154212,,,,,,
1478536501.58,-1.225559,-1.444502,-1.884435,-0.449666,-0.389158,-0.210170,-0.118527,0.992036,-0.042627,0.028530,-0.017441,0.031869,14.773867,38.332615,8.356665,,,,,,
1478536501.59,-1.298738,-1.443110,-1.954371,-0.475729,-0.296776,-0.185130,-0.122656,0.991859,-0.034218,-0.019053,-0.004371,0.029121,14.773867,38.332615,8.356665,,,,,,
1478536501.60,-1.345356,-1.442788,-1.998570,-0.526536,-0.261489,-0.153345,-0.124429,0.991818,-0.028536,-0.050635,-0.030438,0.022646,14.605307,38.309902,8.747970,,,,,,
1478536501.61,-1.396123,-1.442623,-2.046456,-0.580144,-0.336244,-0.125875,-0.125877,0.991797,-0.022214,-0.029518,-0.015738,-0.025012,14.605307,38.309902,8.747970,,,,,,
1478536501.62,-1.452001,-1.442315,-2.098221,-0.629515,-0.463951,-0.121979,-0.127225,0.991758,-0.015185,-0.028995,-0.004499,-0.032636,14.557853,38.244427,9.106218,,,,,,
1478536501.63,-1.507771,-1.439476,-2.148758,-0.658945,-0.562994,-0.129322,-0.130683,0.991390,-0.008247,-0.059365,-0.014782,-0.020607,14.557853,38.244427,9.106218,,,,,,
1478536501.65,-1.570337,-1.438037,-2.205456,-0.724147,-0.622384,-0.172186,-0.132370,0.991200,-0.000061,-0.107986,-0.034779,-0.009842,14.477020,38.192284,9.447508,,,,,,
1478536501.66,-1.637335,-1.435449,-2.265372,-0.779780,-0.765603,-0.239253,-0.134636,0.990855,0.008972,-0.125069,-0.042109,-0.018249,14.477020,38.192284,9.447508,,,,,,
1478536501.67,-1.702887,-1.431548,-2.322318,-0.773609,-0.899727,-0.314167,-0.137589,0.990321,0.018281,-0.096374,-0.051524,-0.021928,9.296812,48.148926,8.111664,,,,,,
1478536501.68,-1.764743,-1.426465,-2.374646,-0.773035,-0.970972,-0.370599,-0.141134,0.989602,0.027721,-0.077769,-0.068902,-0.025524,9.296812,48.148926,8.111664,,,,,,
1478536501.69,-1.824270,-1.420858,-2.424069,-0.796611,-1.018101,-0.371370,-0.144605,0.988780,0.037459,-0.058871,-0.075481,-0.025252,9.111036,48.079575,8.711623,,,,,,
1478536501.70,-1.879089,-1.414618,-2.469722,-0.804116,-0.888183,-0.384710,-0.148211,0.987829,0.047197,-0.048094,-0.087026,-0.019487,9.011147,48.041496,9.020120,,,,,,
1478536501.71,-1.932204,-1.408242,-2.514708,-0.855323,-0.806054,-0.335325,-0.151384,0.986817,0.057225,-0.035810,-0.056367,0.006755,9.011147,48.041496,9.020120,,,,,,
1478536501.72,-1.987604,-1.401863,-2.562837,-0.954329,-0.741814,-0.251987,-0.153737,0.985765,0.068067,0.029408,-0.070329,0.125155,8.825349,47.939384,9.719934,,,,,,
1478536501.73,-2.042186,-1.395733,-2.610600,-0.935663,-0.700296,-0.176378,-0.155175,0.984716,0.079095,0.062996,-0.092580,0.224418,8.825349,47.939384,9.719934,,,,,,
1478536501.74,-2.086257,-1.390277,-2.649355,-0.780750,-0.504294,-0.138204,-0.156212,0.983751,0.088502,0.036186,-0.071794,0.253905,8.774096,47.778271,10.526203,,,,,,
1478536501.75,-2.124176,-1.385570,-2.684063,-0.748047,-0.337835,-0.057143,-0.156682,0.982895,0.096793,-0.034510,-0.052322,0.158319,8.774096,47.778271,10.526203,,,,,,
1478536501.76,-2.162565,-1.381059,-2.718785,-0.742078,-0.435718,-0.030875,-0.156531,0.982054,0.105207,-0.032068,-0.117338,0.071245,8.785088,47.620094,11.211481,,,,,,
1478536501.77,-2.205064,-1.376472,-2.756344,-0.851787,-0.584308,0.059580,-0.155546,0.981178,0.114431,-0.078997,-0.133034,-0.048894,8.785088,47.620094,11.211481,,,,,,
1478536501.78,-2.254139,-1.370904,-2.798137,-0.960779,-0.826020,0.048596,-0.153979,0.980088,0.125371,-0.127667,-0.165513,-0.144307,8.947057,47.415684,11.926933,,,,,,
1478536501.79,-2.303112,-1.364268,-2.838237,-0.993861,-0.944620,0.010874,-0.152491,0.978749,0.137104,-0.124410,-0.182423,-0.086597,8.947057,47.415684,11.926933,,,,,,
1478536501.80,-2.345816,-1.357266,-2.871919,-0.925987,-0.914098,-0.040173,-0.151391,0.977289,0.148281,-0.114310,-0.215875,-0.005718,9.199785,47.158745,12.726578,,,,,,
1478536501.81,-2.383179,-1.350685,-2.900190,-0.818326,-0.943313,-0.018502,-0.150167,0.975873,0.158498,-0.097697,-0.243177,0.028346,9.199785,47.158745,12.726578,,,,,,
1478536501.82,-2.416508,-1.345463,-2.923500,-0.655800,-1.028174,0.041694,-0.148179,0.974720,0.167225,-0.031325,-0.213337,0.112438,9.437233,46.931675,13.375546,,,,,,
1478536501.83,-2.447442,-1.341573,-2.943293,-0.534753,-1.137881,0.085766,-0.145361,0.973843,0.174641,-0.002390,-0.121731,0.090312,9.615410,46.838295,13.574493,,,,,,
1478536501.84,-2.475479,-1.337840,-2.958978,-0.475960,-1.224663,0.007134,-0.142653,0.972988,0.181505,-0.079759,-0.023312,-0.008623,9.615410,46.838295,13.574493,,,,,,
1478536501.86,-2.496422,-1.333178,-2.967148,-0.464702,-1.235520,-0.162998,-0.141547,0.971901,0.188075,-0.199151,0.016471,-0.052897,9.981195,46.691986,13.812428,,,,,,
1478536501.87,-2.512243,-1.327466,-2.970815,-0.503529,-1.149358,-0.288885,-0.141820,0.970541,0.194775,-0.216319,0.023600,-0.075131,9.981195,46.691986,13.812428,,,,,,
1478536501.88,-2.526496,-1.320240,-2.972554,-0.609126,-1.219629,-0.389792,-0.143072,0.968775,0.202499,-0.111536,-0.045130,-0.035660,10.077513,46.600147,14.050569,,,,,,
1478536501.89,-2.541417,-1.311878,-2.974252,-0.695933,-1.263160,-0.422198,-0.144605,0.966667,0.211289,0.018308,-0.100167,-0.066621,10.077513,46.600147,14.050569,,,,,,
1478536501.90,-2.558127,-1.303067,-2.979003,-0.785723,-1.101114,-0.345284,-0.145742,0.964374,0.220776,0.135396,-0.173831,-0.057172,10.050314,46.484089,14.448860,,,,,,
1478536501.91,-2.576771,-1.294594,-2.988430,-0.797939,-0.846491,-0.192773,-0.145969,0.962098,0.230349,0.233966,-0.256821,0.049818,10.050314,46.484089,14.448860,,,,,,
1478536501.92,-2.596676,-1.287944,-3.001637,-0.695918,-0.643614,0.018660,-0.144669,0.960263,0.238675,0.391861,-0.293149,0.198261,10.109936,46.288803,15.022804,,,,,,
1478536501.93,-2.619221,-1.282512,-3.019042,-0.690465,-0.527382,0.170083,-0.141852,0.958733,0.246392,0.525900,-0.236077,0.168922,10.109936,46.288803,15.022804,,,,,,
1478536501.94,-2.642540,-1.276917,-3.040477,-0.770905,-0.137962,0.273955,-0.138633,0.957128,0.254338,0.184776,-0.014729,0.235271,10.409258,46.036175,15.584182,,,,,,
1478536501.95,-2.663029,-1.270862,-3.065671,-0.859731,0.481388,0.382410,-0.136059,0.955356,0.262265,-0.000308,0.003262,0.287586,10.409258,46.036175,15.584182,,,,,,
1478536501.96,-2.684268,-1.264207,-3.094511,-0.957842,0.585285,0.456507,-0.133264,0.953368,0.270794,-0.044334,-0.034133,0.066166,10.649421,45.675724,16.458035,,,,,,
1478536501.97,-2.706672,-1.257133,-3.122757,-0.954686,0.373929,0.445403,-0.130002,0.951210,0.279821,-0.047595,-0.031974,0.057139,10.649421,45.675724,16.458035,,,,,,
1478536501.98,-2.728573,-1.249934,3.135082,-0.931287,0.152008,0.382032,-0.126588,0.948964,0.288865,-0.026045,-0.085103,-0.191072,10.773632,45.455357,16.979052,,,,,,
1478536501.99,-2.748918,-1.242690,3.113466,-0.862662,-0.041261,0.326188,-0.123313,0.946654,0.297724,-0.037164,-0.190017,-0.309229,10.773632,45.455357,16.979052,,,,,,
1478536502.00,-2.769605,-1.236815,3.094078,-0.701463,-0.263138,0.355564,-0.119147,0.944745,0.305387,-0.047586,-0.278409,-0.191374,11.074308,45.020748,17.917606,,,,,,
1478536502.01,-2.787512,-1.232047,3.077170,-0.591574,-0.127362,0.318064,-0.115220,0.943171,0.311694,-0.031630,-0.290934,0.062604,11.074308,45.020748,17.917606,,,,,,
1478536502.02,-2.797594,-1.227316,3.065472,-0.536220,0.155099,0.152203,-0.113576,0.941588,0.317036,-0.207927,-0.183456,0.212124,11.468580,44.653442,18.576614,,,,,,
1478536502.03,-2.802051,-1.222436,3.057874,-0.525920,0.261060,0.059806,-0.113691,0.939934,0.321868,-0.359545,-0.076424,0.178574,11.468580,44.653442,18.576614,,,,,,
1478536502.04,-2.805408,-1.216546,3.052308,-0.612180,0.147624,-0.041320,-0.114434,0.937907,0.327469,-0.438865,-0.045298,0.017746,11.625640,44.386475,19.111095,,,,,,
1478536502.06,-2.808715,-1.209814,3.048189,-0.661581,0.016623,-0.086428,-0.115411,0.935550,0.333805,-0.425406,-0.078251,-0.158573,11.625640,44.386475,19.111095,,,,,,
1478536502.07,-2.813638,-1.201818,3.044328,-0.806398,-0.180421,-0.140382,-0.116172,0.932696,0.341440,-0.344033,-0.198855,-0.422922,11.544029,44.150112,19.699028,,,,,,
1478536502.08,-2.820649,-1.191523,3.041122,-1.016283,-0.450532,-0.228384,-0.116799,0.928934,0.351340,-0.188606,-0.340555,-0.463248,11.544029,44.150112,19.699028,,,,,,
1478536502.09,-2.829520,-1.178955,3.038516,-1.211553,-0.657665,-0.295161,-0.117253,0.924207,0.363445,-0.046703,-0.437864,-0.299847,11.482773,43.855042,20.382097,,,,,,
1478536502.10,-2.839818,-1.164579,3.035373,-1.385498,-0.700662,-0.306759,-0.117441,0.918622,0.377281,0.053323,-0.500531,-0.008064,11.478312,43.654079,20.811499,,,,,,
1478536502.11,-2.848477,-1.147691,3.032236,-1.641405,-0.487669,-0.376598,-0.118636,0.911818,0.393081,0.054518,-0.493728,-0.023864,11.478312,43.654079,20.811499,,,,,,
1478536502.12,-2.855691,-1.126829,3.029225,-2.048750,-0.434853,-0.477807,-0.121136,0.903055,0.412090,0.018612,-0.445230,-0.005275,11.496872,43.123993,21.879028,,,,,,
1478536502.13,-2.865005,-1.100249,3.026414,-2.615867,-0.741205,-0.629224,-0.123805,0.891320,0.436143,-0.080846,-0.287743,-0.046464,11.496872,43.123993,21.879028,,,,,,
1478536502.14,-2.878844,-1.067067,3.024205,-3.203611,-1.281410,-0.780670,-0.125373,0.875789,0.466129,-0.190102,-0.079234,-0.016162,11.311955,42.300251,23.521849,,,,,,
1478536502.15,-2.899389,-1.029021,3.022301,-3.619339,-1.969998,-0.811841,-0.123677,0.856795,0.500607,-0.256588,0.202516,0.105350,11.311955,42.300251,23.521849,,,,,,
1478536502.16,-2.929701,-0.988847,3.019341,-3.778645,-2.911008,-0.643723,-0.115597,0.835393,0.537360,-0.283344,0.520274,0.128915,11.272289,40.889843,25.913408,,,,,,
1478536502.17,-2.967904,-0.952306,3.016665,-3.248610,-3.413715,-0.631265,-0.100200,0.814755,0.571082,-0.319066,0.674198,-0.016364,11.272289,40.889843,25.913408,,,,,,
1478536502.18,-2.974433,-0.921643,3.035073,-2.571686,-1.595525,-1.790334,-0.100580,0.796596,0.596086,-0.475256,0.473759,-0.164369,12.246635,38.941914,28.356586,,,,,,
1478536502.19,-2.967296,-0.891481,3.059552,-2.640175,-1.007142,-1.807387,-0.108950,0.778003,0.618742,0.252124,1.683560,0.698153,12.246635,38.941914,28.356586,,,,,,
1478536502.20,-2.957367,-0.861828,3.079033,-2.448392,-0.411829,-1.727589,-0.119263,0.759034,0.640035,1.029450,2.969482,0.680736,12.454656,37.603687,30.023209,,,,,,
1478536502.21,-2.946168,-0.837084,3.101012,-1.955264,-0.465750,-1.726919,-0.130031,0.742694,0.656885,0.667293,2.574995,0.296240,12.454656,37.603687,30.023209,,,,,,
1478536502.22,-2.940728,-0.815387,3.111709,-1.885682,-0.216872,-0.838484,-0.136786,0.727991,0.671803,0.267920,1.084738,-0.490971,11.496328,36.435833,31.793291,,,,,,
1478536502.23,-2.948526,-0.795089,3.108975,-1.943708,-0.674316,-0.018461,-0.134351,0.713926,0.687212,0.527158,0.055453,-0.697771,11.035342,35.967236,32.482731,,,,,,
1478536502.24,-2.961797,-0.776613,3.100283,-1.775731,-0.627791,0.302056,-0.127557,0.700867,0.701794,-0.007819,-0.651444,-0.615048,11.035342,35.967236,32.482731,,,,,,
1478536502.25,-2.972166,-0.761083,3.089144,-1.515033,-0.086721,0.556695,-0.122094,0.689706,0.713722,-0.318244,-0.715188,-0.111244,11.516016,34.037846,34.341740,,,,,,
1478536502.27,-2.979037,-0.749479,3.076999,-1.132760,0.119968,0.662973,-0.118474,0.681258,0.722393,-0.009043,-0.619307,0.456058,11.516016,34.037846,34.341740,,,,,,
1478536502.28,-2.987627,-0.741543,3.067571,-0.739221,-0.266564,0.440926,-0.113091,0.675426,0.728704,-0.041557,-0.487331,0.171778,11.943975,32.984146,35.212730,,,,,,
1478536502.29,-2.985532,-0.738691,3.068081,-0.089096,0.381563,-0.278104,-0.114916,0.673320,0.730366,0.171801,-0.012798,0.163815,11.943975,32.984146,35.212730,,,,,,
1478536502.30,-2.968916,-0.740603,3.078934,0.401351,0.971552,-0.816944,-0.126813,0.674733,0.727085,0.503400,0.397990,0.200039,11.724229,32.809170,35.449257,,,,,,
1478536502.31,-2.950591,-0.744722,3.091440,0.577456,0.922588,-0.751026,-0.139586,0.677768,0.721905,0.436736,0.302640,0.181995,11.724229,32.809170,35.449257,,,,,,
1478536502.32,-2.932757,-0.751783,3.102935,0.924562,0.969381,-0.626612,-0.151443,0.682942,0.714602,0.297027,-0.029957,0.047407,10.485286,33.397854,35.287262,,,,,,
1478536502.33,-2.915722,-0.763201,3.114031,1.312385,0.846781,-0.476675,-0.161836,0.691238,0.704272,0.213319,-0.034637,-0.218356,9.923434,33.842556,35.025070,,,,,,
1478536502.34,-2.903213,-0.777248,3.123738,1.483046,0.438104,-0.287024,-0.168323,0.701320,0.692688,0.159961,-0.020839,-0.417344,9.923434,33.842556,35.025070,,,,,,
1478536502.35,-2.895138,-0.792509,3.130339,1.523370,0.348104,0.000841,-0.171280,0.712117,0.680847,0.111725,-0.119160,-0.518707,9.277197,34.949875,34.102615,,,,,,
1478536502.36,-2.887400,-0.808830,3.131717,1.526624,0.740543,0.391634,-0.173597,0.723480,0.668162,0.158659,-0.339065,-0.415736,9.277197,34.949875,34.102615,,,,,,
1478536502.37,-2.880916,-0.825646,3.127298,1.447925,0.976626,0.787563,-0.174765,0.734986,0.655174,0.223578,-0.582505,-0.304496,9.056747,35.966255,33.090065,,,,,,
1478536502.38,-2.876617,-0.842919,3.116775,1.408414,1.206922,1.164532,-0.174229,0.746588,0.642067,0.235035,-0.727423,-0.249535,9.056747,35.966255,33.090065,,,,,,
1478536502.39,-2.874418,-0.861206,3.101306,1.436621,1.340635,1.458257,-0.172007,0.758629,0.628407,0.259791,-0.805992,-0.183247,9.089172,36.738453,32.221447,,,,,,
1478536502.40,-2.876348,-0.881154,3.082061,1.551105,1.145121,1.699916,-0.166793,0.771474,0.614010,0.292205,-0.817418,-0.140026,9.089172,36.738453,32.221447,,,,,,
1478536502.41,-2.884628,-0.902781,3.057976,1.632570,0.976175,1.993387,-0.157425,0.785053,0.599090,0.330857,-0.800327,-0.207809,9.571944,37.431488,31.269962,,,,,,
1478536502.42,-2.895533,-0.924981,3.029386,1.632228,1.177517,2.166593,-0.146601,0.798609,0.583722,0.371485,-0.772532,-0.251248,9.571944,37.431488,31.269962,,,,,,
1478536502.43,-2.903074,-0.947665,3.001016,1.749875,1.555604,1.997564,-0.137879,0.812055,0.567059,0.062470,-0.585782,-0.364209,10.503019,38.048656,30.208195,,,,,,
1478536502.44,-2.901802,-0.970303,2.980251,1.830735,1.762135,1.470322,-0.134199,0.825057,0.548882,-0.238588,-0.332961,-0.431252,10.503019,38.048656,30.208195,,,,,,
1478536502.45,-2.895617,-0.990714,2.969232,1.707880,1.298895,0.885218,-0.133462,0.836418,0.531595,-0.397269,-0.049095,-0.484415,10.757917,38.808559,29.132656,,,,,,
1478536502.47,-2.889051,-1.009575,2.968389,1.767476,0.503514,0.368450,-0.132984,0.846606,0.515339,-0.466595,0.188108,-0.450138,10.757917,38.808559,29.132656,,,,,,
1478536502.48,-2.879528,-1.030532,2.976088,2.126677,0.273193,0.075816,-0.133258,0.857573,0.496801,-0.531323,0.219148,-0.338643,10.731863,39.754955,27.837376,,,,,,
1478536502.49,-2.861581,-1.055380,2.990648,2.575628,0.615953,-0.066983,-0.136221,0.870088,0.473700,-0.399210,0.047469,-0.242957,10.647564,40.396130,26.931963,,,,,,
1478536502.50,-2.833428,-1.083616,3.011180,2.921180,1.088553,-0.136201,-0.141990,0.883656,0.446083,-0.141411,-0.165257,-0.193703,10.647564,40.396130,26.931963,,,,,,
1478536502.51,-2.794810,-1.113677,3.037132,3.100987,1.600376,-0.136113,-0.150008,0.897328,0.415091,0.120620,-0.373799,-0.132101,10.022108,41.953751,24.697956,,,,,,
1478536502.52,-2.749618,-1.143161,3.065325,2.979248,1.947469,-0.028443,-0.158429,0.909949,0.383266,0.300397,-0.508612,-0.038860,10.022108,41.953751,24.697956,,,,,,
1478536502.53,-2.702596,-1.169402,3.093858,2.638121,1.959944,0.008121,-0.166061,0.920517,0.353655,0.414062,-0.382721,0.152052,9.058533,43.447594,22.378523,,,,,,
1478536502.54,-2.655473,-1.193060,3.123996,2.472749,1.811586,0.031540,-0.172311,0.929502,0.326091,0.312203,-0.022123,0.262380,9.058533,43.447594,22.378523,,,,,,
1478536502.55,-2.604779,-1.214233,-3.123976,2.278412,1.633384,-0.092129,-0.178507,0.937102,0.299959,0.281702,0.356965,0.312178,8.236688,44.575829,20.388758,,,,,,
1478536502.56,-2.559217,-1.231209,-3.091179,1.797527,1.323009,0.000605,-0.183207,0.942892,0.278189,0.157053,0.538400,0.494363,8.236688,44.575829,20.388758,,,,,,
1478536502.57,-2.530621,-1.244249,-3.073317,1.181519,1.038401,0.312941,-0.184017,0.947156,0.262743,-0.028416,0.467243,0.712064,7.652944,45.364147,18.816895,,,,,,
1478536502.58,-2.520891,-1.253802,-3.070824,0.680548,0.587344,0.502197,-0.181293,0.950177,0.253568,-0.103298,0.248126,0.713793,7.652944,45.364147,18.816895,,,,,,
1478536502.59,-2.520490,-1.262334,-3.073612,0.629813,0.194749,0.533847,-0.176671,0.952802,0.246894,-0.180736,-0.005826,0.385568,7.805244,45.617069,18.130360,,,,,,
1478536502.60,-2.517592,-1.271541,-3.069751,0.828487,-0.146474,0.371998,-0.172253,0.955556,0.239251,0.019894,-0.248525,-0.248208,7.805244,45.617069,18.130360,,,,,,
1478536502.61,-2.506407,-1.281456,-3.055617,1.041299,-0.235299,0.206093,-0.169288,0.958432,0.229672,0.182930,-0.066724,-0.099713,8.216621,45.839233,17.372408,,,,,,
1478536502.62,-2.491424,-1.291514,-3.037663,1.024533,-0.198231,0.197866,-0.166866,0.961254,0.219425,0.404293,-0.002330,0.065701,8.216621,45.839233,17.372408,,,,,,
1478536502.63,-2.482228,-1.299818,-3.026826,0.705290,-0.084622,0.282097,-0.163981,0.963510,0.211565,0.595408,-0.023583,0.207548,8.487544,46.160976,16.360767,,,,,,
1478536502.64,-2.480047,-1.304936,-3.026108,0.294390,0.234520,0.272004,-0.161411,0.964867,0.207313,0.545703,-0.145043,0.299462,8.487544,46.160976,16.360767,,,,,,
1478536502.65,-2.479729,-1.306330,-3.031945,-0.076113,0.683332,0.165869,-0.160650,0.965232,0.206201,0.384191,-0.207618,0.362082,8.694771,46.248466,16.000912,,,,,,
1478536502.66,-2.478480,-1.304855,-3.041502,-0.299638,1.085824,0.084713,-0.161783,0.964846,0.207121,0.288721,-0.218645,0.290193,8.629575,46.210938,16.143988,,,,,,
1478536502.68,-2.476873,-1.301595,-3.053493,-0.476998,1.275656,0.031116,-0.164055,0.963984,0.209336,0.303399,-0.358561,0.078048,8.629575,46.210938,16.143988,,,,,,
1478536502.69,-2.469414,-1.298490,-3.056907,-0.126520,0.902412,-0.184417,-0.167475,0.963153,0.210447,0.344828,-0.473895,-0.041395,8.252903,46.066235,16.743374,,,,,,
1478536502.70,-2.469984,-1.293369,-3.062548,-0.603549,0.027947,-0.068615,-0.170422,0.961763,0.214401,0.405712,-0.477617,-0.205413,8.252903,46.066235,16.743374,,,,,,
1478536502.71,-2.510327,-1.305111,-3.069082,1.098815,-4.249239,1.091498,-0.154960,0.964913,0.211968,0.821800,0.106819,0.522239,8.281094,46.014935,16.870039,,,,,,
1478536502.72,-2.637360,-1.289773,-3.140098,-3.610437,-5.726364,0.435221,-0.133993,0.960772,0.242823,0.035146,2.978422,-0.526652,8.281094,46.014935,16.870039,,,,,,
1478536502.73,-2.692317,-1.247093,3.098132,-3.857112,1.130875,-0.901963,-0.138146,0.948064,0.286514,-1.843406,4.140391,1.741746,10.446800,45.212505,17.811302,,,,,,
1478536502.74,-2.678261,-1.211688,3.075472,-3.310591,3.002558,-0.877837,-0.157069,0.936211,0.314387,-3.709065,3.688164,2.741872,10.446800,45.212505,17.811302,,,,,,
1478536502.75,-2.700759,-1.181866,3.058183,-2.543581,-1.875805,-0.509688,-0.161801,0.925315,0.342946,-0.708240,0.868615,-1.170582,8.750386,43.982433,21.436535,,,,,,
1478536502.76,-2.762792,-1.164998,3.029047,-1.787905,-3.301339,0.571450,-0.145982,0.918788,0.366768,2.043595,-0.285594,-1.973808,8.750386,43.982433,21.436535,,,,,,
1478536502.77,-2.799406,-1.151392,3.001724,-1.433273,-0.210923,0.385812,-0.136641,0.913332,0.383608,0.249098,-1.229295,0.009535,10.171188,42.999649,22.762377,,,,,,
1478536502.78,-2.782934,-1.144608,3.003269,-0.295845,1.711281,-0.461751,-0.145112,0.910548,0.387098,-0.825454,-1.330852,-0.201245,10.171188,42.999649,22.762377,,,,,,
1478536502.79,-2.753089,-1.143539,3.016311,0.144438,1.634754,-0.457783,-0.156967,0.910106,0.383496,-0.478851,-1.025981,-0.423901,9.458724,42.726360,23.569881,,,,,,
1478536502.80,-2.737254,-1.145318,3.021717,0.288760,0.818232,-0.024922,-0.162383,0.910841,0.379473,0.039763,-0.266295,-0.171175,8.943766,42.801151,23.635128,,,,,,
1478536502.81,-2.731070,-1.150595,3.022628,0.515702,0.477549,0.207320,-0.162806,0.913007,0.374049,0.041804,0.410373,-0.020412,8.943766,42.801151,23.635128,,,,,,
1478536502.82,-2.726687,-1.155623,3.021882,0.375867,0.435887,0.208458,-0.162591,0.915047,0.369126,-0.189856,0.996102,0.081008,8.772177,42.988430,23.357924,,,,,,
1478536502.83,-2.725185,-1.159268,3.021711,0.322039,0.090024,0.122761,-0.161796,0.916510,0.365829,-0.549707,1.092248,-0.066131,8.772177,42.988430,23.357924,,,,,,
1478536502.84,-2.721112,-1.163222,3.024661,0.403162,0.185355,0.021754,-0.161804,0.918085,0.361856,-0.749940,0.483343,-0.032372,8.802363,43.130150,23.083702,,,,,,
1478536502.85,-2.712444,-1.167007,3.028910,0.386190,0.524231,0.005977,-0.163487,0.919579,0.357277,-0.674373,-0.046868,0.198158,8.802363,43.130150,23.083702,,,,,,
1478536502.86,-2.704387,-1.171147,3.033257,0.456528,0.290791,0.021971,-0.164747,0.921198,0.352496,-0.423068,-0.177957,0.340054,8.622799,43.319214,22.795658,,,,,,
1478536502.88,-2.700269,-1.177274,3.038040,0.651054,-0.115708,0.117493,-0.163783,0.923564,0.346705,-0.055898,-0.186717,0.213567,8.622799,43.319214,22.795658,,,,,,
1478536502.89,-2.697795,-1.185537,3.042443,0.818155,-0.142723,0.213571,-0.161358,0.926701,0.339395,0.122570,-0.251713,0.131507,8.698605,43.586506,22.250828,,,,,,
1478536502.90,-2.695150,-1.195347,3.047930,0.954756,-0.300315,0.228015,-0.158322,0.930343,0.330750,0.113446,-0.362228,0.104552,8.698605,43.586506,22.250828,,,,,,
1478536502.91,-2.695225,-1.205545,3.053907,0.953708,-0.603357,0.234342,-0.154194,0.934034,0.322187,-0.001294,-0.389677,-0.087202,9.028913,43.962372,21.362045,,,,,,
1478536502.92,-2.697032,-1.214846,3.058794,0.829624,-0.571890,0.227114,-0.149868,0.937316,0.314609,-0.096164,-0.366683,-0.135318,9.028913,43.962372,21.362045,,,,,,
1478536502.93,-2.696425,-1.222338,3.062576,0.652867,-0.165739,0.185804,-0.147031,0.939900,0.308171,-0.202273,-0.358525,0.029369,9.481764,44.295639,20.458284,,,,,,
1478536502.94,-2.693985,-1.228138,3.064267,0.470913,0.121255,0.191823,-0.145421,0.941865,0.302892,-0.058467,-0.208390,0.173350,9.481764,44.295639,20.458284,,,,,,
1478536502.95,-2.694246,-1.231943,3.063096,0.259302,0.054433,0.192349,-0.143790,0.943136,0.299697,-0.060098,-0.209662,0.176545,9.646709,44.476288,19.983730,,,,,,
1478536502.96,-2.702374,-1.234416,3.057535,0.097003,-0.424714,0.288852,-0.140357,0.943956,0.298743,0.195915,-0.223420,0.061425,9.646709,44.476288,19.983730,,,,,,
1478536502.97,-2.721960,-1.236095,3.046458,-0.020328,-0.984188,0.410663,-0.133834,0.944508,0.299987,0.162627,-0.253911,-0.008407,9.752592,44.500553,19.878040,,,,,,
1478536502.98,-2.744058,-1.238074,3.033196,0.026174,-0.811203,0.461151,-0.126449,0.945157,0.301147,0.028045,-0.238232,0.074647,10.025431,44.479576,19.789062,,,,,,
1478536502.99,-2.760622,-1.240325,3.019541,0.026920,-0.191761,0.476461,-0.120652,0.945889,0.301224,-0.109481,-0.269696,0.239776,10.025431,44.479576,19.789062,,,,,,
1478536503.00,-2.775577,-1.241182,3.002477,-0.168261,0.168877,0.538689,-0.115844,0.946167,0.302238,-0.188371,-0.315491,0.195412,11.026917,44.326481,19.598959,,,,,,
1478536503.01,-2.791935,-1.240729,2.983186,-0.259261,0.173350,0.529941,-0.111031,0.946020,0.304496,-0.121040,-0.345221,0.031518,11.026917,44.326481,19.598959,,,,,,
1478536503.02,-2.805006,-1.240179,2.967444,-0.188668,0.172363,0.404652,-0.107214,0.945842,0.306411,0.010656,-0.353923,-0.141327,11.441473,44.109123,19.850107,,,,,,
1478536503.03,-2.812194,-1.240328,2.958464,-0.029071,0.098264,0.214428,-0.104963,0.945890,0.307041,0.119733,-0.313108,-0.185825,11.441473,44.109123,19.850107,,,,,,
1478536503.04,-2.810044,-1.241645,2.959799,0.189047,0.103346,-0.084217,-0.105217,0.946317,0.305637,0.160164,-0.245359,-0.101917,11.628103,44.018864,19.941795,,,,,,
1478536503.05,-2.793416,-1.244294,2.974010,0.447632,0.380896,-0.401594,-0.109429,0.947170,0.301487,0.136208,-0.213070,0.059674,11.628103,44.018864,19.941795,,,,,,
1478536503.06,-2.764598,-1.247850,2.998507,0.608736,0.555628,-0.621753,-0.116830,0.948304,0.295075,-0.001761,-0.171968,0.155898,11.207861,44.251522,19.665590,,,,,,
1478536503.07,-2.731434,-1.251042,3.028718,0.621770,0.353965,-0.748165,-0.125342,0.949313,0.288262,-0.164011,-0.118090,0.101311,11.207861,44.251522,19.665590,,,,,,
1478536503.09,-2.700037,-1.252918,3.060907,0.535321,-0.013314,-0.810668,-0.133568,0.949901,0.282575,-0.255790,-0.060176,-0.020352,10.378548,44.663345,19.183847,,,,,,
1478536503.10,-2.673004,-1.253118,3.091558,0.364269,-0.234523,-0.804498,-0.141071,0.949963,0.278691,-0.381146,-0.043622,-0.266332,10.378548,44.663345,19.183847,,,,,,
1478536503.11,-2.652179,-1.250826,3.115386,0.055183,-0.123525,-0.696773,-0.147867,0.949245,0.277614,-0.360769,-0.139980,-0.318218,9.687922,44.989731,18.778099,,,,,,
1478536503.12,-2.639538,-1.246005,3.128671,-0.306009,0.031140,-0.525536,-0.153565,0.947717,0.279731,-0.269058,-0.284250,-0.357399,9.392006,45.049137,18.786007,,,,,,
1478536503.13,-2.641156,-1.237774,3.128289,-0.841758,-0.201483,-0.307356,-0.156850,0.945059,0.286814,-0.151683,-0.416433,-0.389139,9.392006,45.049137,18.786007,,,,,,
1478536503.14,-2.662751,-1.223674,3.111238,-1.664895,-0.645867,-0.113052,-0.156745,0.940356,0.301931,-0.016992,-0.500887,-0.287542,9.110633,44.827942,19.442242,,,,,,
1478536503.15,-2.703056,-1.200486,3.080426,-2.697814,-1.238735,-0.057860,-0.153670,0.932215,0.327659,0.093383,-0.417063,-0.097847,9.110633,44.827942,19.442242,,,,,,
1478536503.16,-2.752448,-1.166246,3.046077,-3.724825,-1.817267,-0.230945,-0.149333,0.919279,0.364177,0.178080,-0.109663,0.099949,9.498458,43.793900,21.504011,,,,,,
1478536503.17,-2.802352,-1.123555,3.017078,-4.305002,-2.362011,-0.425131,-0.143917,0.901644,0.407832,0.166119,0.318190,0.308797,9.498458,43.793900,21.504011,,,,,,
1478536503.18,-2.848666,-1.078029,2.996740,-4.390005,-2.757241,-0.544785,-0.136600,0.881027,0.452915,0.101246,0.654328,0.384259,10.251021,41.860733,24.761755,,,,,,
1478536503.19,-2.887452,-1.032806,2.985411,-4.242659,-2.726728,-0.684215,-0.128827,0.858740,0.495953,0.007551,0.799250,0.299473,10.251021,41.860733,24.761755,,,,,,
1478536503.20,-2.919611,-0.988636,2.980923,-4.108971,-2.716460,-0.779348,-0.121052,0.835277,0.536338,-0.086773,0.688191,0.151650,11.206059,39.639915,27.814566,,,,,,
1478536503.21,-2.957456,-0.945007,2.976025,-4.147279,-3.469890,-0.478966,-0.107247,0.810501,0.575835,-0.156470,0.479599,-0.192092,11.206059,39.639915,27.814566,,,,,,
1478536503.22,-3.009707,-0.899743,2.963157,-4.413089,-4.009506,0.258498,-0.081771,0.783167,0.616411,-0.302842,0.326147,-0.691210,12.797694,37.215427,30.360826,,,,,,
1478536503.23,-3.048629,-0.861838,2.949247,-3.305320,-2.035874,0.325800,-0.060436,0.759041,0.648232,-0.511997,0.270195,-0.687935,12.797694,37.215427,30.360826,,,,,,
1478536503.24,-3.042182,-0.837734,2.951837,-2.010900,1.106633,-0.522926,-0.066411,0.743128,0.665845,-0.476054,0.343068,0.136554,14.542114,34.798653,32.374828,,,,,,
1478536503.25,-3.026177,-0.817626,2.956948,-1.884050,0.905934,-0.536104,-0.078764,0.729524,0.679405,-0.011736,0.887709,1.213692,14.542114,34.798653,32.374828,,,,,,
1478536503.26,-3.026217,-0.796613,2.962031,-1.957863,-0.716787,-0.562515,-0.080484,0.714992,0.694484,0.225976,0.474125,-0.115352,13.556617,33.615650,34.011097,,,,,,
1478536503.27,-3.035031,-0.775713,2.965305,-1.936972,-1.048334,-0.387366,-0.075933,0.700225,0.709872,0.089345,-0.174590,-0.563861,13.694595,32.983589,34.570072,,,,,,
1478536503.29,-3.040988,-0.757086,2.965722,-1.665743,-0.419105,-0.167178,-0.073000,0.686806,0.723166,0.041582,-0.485405,-0.416403,13.694595,32.983589,34.570072,,,,,,
1478536503.30,-3.036111,-0.744733,2.968378,-0.951105,0.568847,-0.372224,-0.077413,0.677776,0.731182,0.150411,-0.341442,-0.221493,13.923920,31.806143,35.567436,,,,,,
1478536503.31,-3.016869,-0.740259,2.975357,-0.173927,1.624041,-0.587314,-0.091844,0.674479,0.732559,0.363405,-0.034602,0.144714,13.923920,31.806143,35.567436,,,,,,
1478536503.32,-2.985774,-0.743191,2.986998,0.552773,2.392125,-0.814229,-0.114267,0.676641,0.727393,0.362009,-0.187185,0.256906,12.550167,31.683718,36.182652,,,,,,
1478536503.33,-2.948545,-0.750784,3.000566,0.961860,2.696110,-0.787700,-0.140273,0.682212,0.717572,0.290846,-0.235542,0.162250,12.550167,31.683718,36.182652,,,,,,
1478536503.34,-2.912673,-0.762105,3.014665,1.365225,2.381299,-0.710334,-0.164154,0.690446,0.704512,0.287064,-0.087754,-0.029082,10.048706,32.530735,36.212204,,,,,,
1478536503.35,-2.881768,-0.777254,3.029480,1.721676,1.811132,-0.594994,-0.183137,0.701325,0.688915,0.183640,0.135086,-0.139507,10.048706,32.530735,36.212204,,,,,,
1478536503.36,-2.858041,-0.795458,3.043456,1.977964,1.155437,-0.381540,-0.195825,0.714184,0.672007,-0.037909,0.282184,-0.144480,8.149622,33.876816,35.447056,,,,,,
1478536503.37,-2.837990,-0.816830,3.057332,2.308804,0.905314,-0.254802,-0.204649,0.728979,0.653229,-0.251482,0.168726,-0.187775,8.149622,33.876816,35.447056,,,,,,
1478536503.38,-2.819322,-0.842695,3.070475,2.688368,0.877891,0.040583,-0.210763,0.746439,0.631195,-0.164420,-0.080927,-0.243973,7.239850,35.547684,33.977871,,,,,,
1478536503.39,-2.799949,-0.872576,3.081079,2.970551,1.148812,0.376132,-0.215380,0.765987,0.605702,0.106463,-0.292705,-0.182560,7.239850,35.547684,33.977871,,,,,,
1478536503.40,-2.779546,-0.906041,3.090460,3.254025,1.265833,0.632125,-0.218487,0.787068,0.576877,0.320889,-0.527989,-0.038150,6.724517,37.515469,31.904848,,,,,,
1478536503.41,-2.760192,-0.943253,3.097521,3.500280,1.325865,1.019773,-0.218553,0.809472,0.544967,0.381761,-0.644937,0.001389,6.724517,37.515469,31.904848,,,,,,
1478536503.42,-2.743343,-0.984330,3.099214,3.701135,1.533051,1.522021,-0.214620,0.832901,0.510111,0.376882,-0.782944,0.036855,6.632251,39.596962,29.302599,,,,,,
1478536503.43,-2.727213,-1.028923,3.096728,3.894987,1.794731,1.863809,-0.207649,0.856744,0.472093,0.259269,-1.166559,-0.151856,6.632251,39.596962,29.302599,,,,,,
1478536503.44,-2.708408,-1.076006,3.095182,4.109626,1.949168,1.887604,-0.199323,0.880068,0.430987,0.113538,-1.116076,-0.306689,6.834693,40.608521,27.834940,,,,,,
1478536503.45,-2.679822,-1.124248,3.103993,4.365561,1.957311,1.546527,-0.192406,0.901943,0.386624,-0.098259,-0.942455,-0.364209,7.131332,41.591473,26.264851,,,,,,
1478536503.46,-2.638133,-1.172531,3.128256,4.544496,1.823739,1.237393,-0.187107,0.921735,0.339699,-0.288525,-0.766569,-0.330375,7.131332,41.591473,26.264851,,,,,,
1478536503.47,-2.588209,-1.221395,-3.120998,4.612552,1.720309,1.378711,-0.179921,0.939578,0.291242,-0.386394,-0.581332,-0.224729,7.754966,44.496548,20.747684,,,,,,
1478536503.48,-2.540368,-1.268870,-3.087208,4.195284,1.387526,1.680012,-0.168202,0.954766,0.245216,-0.354045,-0.189492,-0.198890,7.754966,44.496548,20.747684,,,,,,
1478536503.50,-2.507614,-1.309405,-3.062012,3.299157,0.600897,1.639881,-0.153079,0.966031,0.208207,-0.353696,0.279132,-0.200165,8.688065,45.915768,16.935413,,,,,,
1478536503.51,-2.474756,-1.340590,-3.027315,2.734190,-0.296941,0.949028,-0.141129,0.973619,0.179299,-0.391967,0.736616,-0.241646,8.688065,45.915768,16.935413,,,,,,
1478536503.52,-2.413479,-1.362383,-2.954585,2.503201,-1.154153,-0.066378,-0.137690,0.978360,0.154443,-0.419241,0.910830,-0.325662,9.764673,46.652039,14.099193,,,,,,
1478536503.53,-2.327362,-1.376624,-2.850437,2.282633,-1.555671,-0.561951,-0.140316,0.981208,0.132450,-0.314655,0.776437,-0.365619,9.764673,46.652039,14.099193,,,,,,
1478536503.54,-2.235089,-1.385437,-2.743412,1.896687,-1.067839,-0.613777,-0.145109,0.982870,0.113621,-0.092806,0.280420,-0.088764,9.730389,47.363731,11.512828,,,,,,
1478536503.55,-2.150838,-1.389516,-2.652883,1.352147,-0.213052,-0.593142,-0.150801,0.983614,0.098809,0.043684,-0.165956,0.275687,9.730389,47.363731,11.512828,,,,,,
1478536503.56,-2.086697,-1.390401,-2.594934,0.740306,0.987184,-0.378172,-0.156067,0.983773,0.088511,0.165329,-0.471077,0.544622,9.242282,47.814270,9.946064,,,,,,
1478536503.57,-2.052814,-1.391520,-2.577413,0.181352,1.679829,0.086516,-0.158000,0.983973,0.082662,0.370998,-0.710017,0.654124,9.242282,47.814270,9.946064,,,,,,
1478536503.58,-2.066768,-1.395164,-2.603277,-0.353987,0.749246,0.653759,-0.153677,0.984616,0.083152,0.660208,-0.878339,0.514123,8.925424,47.886097,9.889748,,,,,,
1478536503.59,-2.139312,-1.400838,-2.669709,-0.751842,-1.154050,1.109403,-0.142535,0.985592,0.091062,1.310000,-0.535046,-0.215971,8.925424,47.886097,9.889748,,,,,,
1478536503.60,-2.251133,-1.405606,-2.757929,-0.898288,-2.696244,1.160304,-0.127829,0.986387,0.103442,1.437079,-0.043714,-0.383715,10.045803,47.557796,10.386854,,,,,,
1478536503.61,-2.354603,-1.403745,-2.834594,-1.050770,-2.411735,0.459127,-0.117762,0.986079,0.117387,1.375025,0.433019,-0.295274,10.045803,47.557796,10.386854,,,,,,
1478536503.62,-2.418568,-1.396784,-2.885554,-1.062279,-1.047071,0.085158,-0.114556,0.984898,0.129819,0.947457,0.547039,0.179553,10.045803,47.557796,10.386854,,,,,,
1478536503.63,-2.463421,-1.386099,-2.930737,-1.346193,0.431977,-0.116838,-0.115216,0.982992,0.143011,0.116284,0.408213,0.890040,11.359971,47.051029,11.300465,,,,,,
1478536503.64,-2.472369,-1.372675,-2.961596,-1.275159,2.593236,-0.454003,-0.122108,0.980438,0.154373,-0.379449,1.138520,1.484009,11.359971,47.051029,11.300465,,,,,,
1478536503.65,-2.429703,-1.354952,-2.963130,-1.496450,4.600234,-1.328745,-0.139911,0.976796,0.162156,-0.918347,2.581966,1.503967,10.422279,46.814114,13.052342,,,,,,
1478536503.66,-2.386529,-1.316419,-2.965341,-3.129312,4.085145,-2.706213,-0.172460,0.967820,0.183253,-1.723094,3.865340,0.785771,10.422279,46.814114,13.052342,,,,,,
1478536503.67,-2.349898,-1.277175,-2.974254,-2.586928,4.520679,-2.201663,-0.205936,0.957202,0.203359,-1.148800,-0.159198,-1.298467,6.931476,46.430237,16.332071,,,,,,
1478536503.68,-2.337378,-1.249160,-3.002582,-2.455800,3.024014,-1.051073,-0.227696,0.948720,0.219285,0.171208,-1.266408,-1.265915,5.188152,46.102058,17.839067,,,,,,
1478536503.69,-2.386186,-1.233101,-3.040080,-1.553334,-2.779101,-0.034962,-0.227144,0.943521,0.241194,0.170656,-1.261209,-1.287825,5.188152,46.102058,17.839067,,,,,,
1478536503.71,-2.453487,-1.234715,-3.051293,0.314288,-5.864786,0.442686,-0.209442,0.944054,0.254747,0.656951,-1.572625,-0.885972,5.188152,46.102058,17.839067,,,,,,
1478536503.72,-2.513925,-1.244265,-3.053564,0.682621,-5.217658,0.662747,-0.188369,0.947161,0.259623,0.377196,-2.051165,-0.915888,5.343635,45.466141,19.360374,,,,,,
1478536503.73,-2.552745,-1.254477,-3.055790,0.823623,-2.942728,0.533170,-0.172770,0.950387,0.258681,-0.481832,-2.193444,-0.020461,5.343635,45.466141,19.360374,,,,,,
1478536503.74,-2.563043,-1.262252,-3.042239,0.776726,-2.027681,-0.074105,-0.166051,0.952777,0.254252,-1.031047,-1.488879,-0.330530,7.979437,45.613564,18.063221,,,,,,
1478536503.75,-2.561968,-1.264800,-3.026830,0.363256,-1.026942,-0.255180,-0.164994,0.953547,0.252041,-1.204070,-0.631511,-1.104015,7.979437,45.613564,18.063221,,,,,,
1478536503.76,-2.559757,-1.269153,-3.017717,0.580697,-0.570316,0.156019,-0.163268,0.954850,0.248205,-0.819794,0.240631,0.022943,8.912266,45.871899,16.937798,,,,,,
1478536503.77,-2.566274,-1.281044,-3.013550,1.159416,-1.233244,0.576615,-0.155458,0.958315,0.239720,-0.318251,1.145888,0.836467,8.912266,45.871899,16.937798,,,,,,
1478536503.78,-2.567276,-1.295537,-2.994271,1.476346,-1.968975,0.208503,-0.147657,0.962355,0.228191,0.253949,1.687746,0.869191,9.233774,46.052284,16.262634,,,,,,
1478536503.79,-2.544382,-1.306696,-2.956417,1.387599,-0.888886,-0.349424,-0.146793,0.965328,0.215856,0.546848,1.600483,0.789499,9.233774,46.052284,16.262634,,,,,,
1478536503.80,-2.502883,-1.315552,-2.916426,1.171580,0.529677,-0.224408,-0.150519,0.967602,0.202709,0.977393,0.705509,0.751362,10.048628,46.439102,14.593956,,,,,,
1478536503.81,-2.481960,-1.321939,-2.905444,0.435354,1.134394,0.274771,-0.150937,0.969194,0.194628,0.957425,-0.211580,0.491163,10.048628,46.439102,14.593956,,,,,,
1478536503.82,-2.486324,-1.324548,-2.925304,-0.239077,1.447791,0.609284,-0.148545,0.969834,0.193279,0.592423,-0.793290,0.176960,9.791717,46.836006,13.455847,,,,,,
1478536503.83,-2.521777,-1.324587,-2.977082,-0.901486,1.426273,1.072269,-0.141579,0.969843,0.198392,0.212898,-0.911845,0.334506,9.791717,46.836006,13.455847,,,,,,
1478536503.84,-2.579386,-1.317272,-3.051308,-1.743751,1.245015,0.994487,-0.133699,0.968035,0.212211,-0.552184,-0.460512,0.382271,9.945010,46.704617,13.795805,,,,,,
1478536503.85,-2.640460,-1.299654,-3.119923,-2.502074,0.240654,0.478025,-0.128672,0.963466,0.234899,-0.609778,-0.073970,0.162638,10.267677,46.419750,14.502770,,,,,,
1478536503.86,-2.700704,-1.271476,3.104795,-3.290888,-0.585730,0.097933,-0.125834,0.955537,0.266673,-0.590474,0.306090,0.149007,10.267677,46.419750,14.502770,,,,,,
1478536503.87,-2.762782,-1.234262,3.050842,-4.085423,-1.148141,0.084919,-0.122120,0.943905,0.306807,-0.468579,0.457432,0.317003,10.877167,44.865322,18.421150,,,,,,
1478536503.88,-2.825841,-1.189104,2.997463,-4.819526,-1.244240,0.250099,-0.115670,0.928036,0.354076,-0.128105,0.481068,0.260761,10.877167,44.865322,18.421150,,,,,,
1478536503.89,-2.876059,-1.137843,2.956674,-5.171062,-1.238000,-0.006504,-0.110101,0.907731,0.404849,0.323449,0.395568,0.165082,11.548395,42.847786,22.388626,,,,,,
1478536503.91,-2.914463,-1.086315,2.931898,-4.920813,-1.702156,-0.218271,-0.104878,0.884917,0.453787,0.473012,0.213289,-0.205695,11.548395,42.847786,22.388626,,,,,,
1478536503.92,-2.949706,-1.038761,2.917779,-4.407766,-2.301446,-0.349149,-0.096746,0.861776,0.497978,0.479070,0.038447,-0.702400,12.236575,40.333828,26.343830,,,,,,
1478536503.93,-2.985177,-0.996651,2.914990,-3.876659,-3.523809,-0.637272,-0.084606,0.839657,0.536487,0.370174,-0.193951,-1.010440,12.785488,39.183220,27.780485,,,,,,
1478536503.94,-3.025646,-0.952037,2.918149,-4.389815,-4.197805,-0.708127,-0.067101,0.814599,0.576131,-0.198279,-0.538262,-1.075261,12.785488,39.183220,27.780485,,,,,,
1478536503.95,-3.067986,-0.899902,2.912638,-5.014259,-3.212157,0.011904,-0.045719,0.783266,0.620004,-0.370297,-0.604875,-0.170174,13.619196,38.112457,28.853197,,,,,,
1478536503.96,-3.089486,-0.855379,2.911355,-3.862469,-1.559614,-0.379565,-0.034163,0.754819,0.655042,-0.683946,-0.295087,0.763735,13.619196,38.112457,28.853197,,,,,,
1478536503.97,-3.083243,-0.826210,2.918374,-2.451607,0.814516,-0.513334,-0.039519,0.735368,0.676514,-1.124116,1.135268,0.916396,15.762065,34.116051,32.529999,,,,,,
1478536503.98,-3.073627,-0.801188,2.927185,-2.365354,-0.546400,-0.966206,-0.047258,0.718183,0.694247,-0.145232,3.541216,0.447125,15.762065,34.116051,32.529999,,,,,,
1478536503.99,-3.084013,-0.776081,2.950758,-2.227626,-2.919369,-1.911456,-0.041070,0.700488,0.712481,-0.609931,4.424649,-0.329425,15.300491,32.735184,34.129921,,,,,,
1478536504.00,-3.098785,-0.753494,2.978351,-1.983620,-3.232636,-1.983591,-0.031210,0.684191,0.728635,-0.183512,1.887495,-0.225247,15.300491,32.735184,34.129921,,,,,,
1478536504.01,-3.102983,-0.736139,3.007479,-1.402125,-1.766980,-2.179000,-0.028605,0.671432,0.740514,0.611278,-0.481155,-0.085912,16.147161,31.935644,34.495396,,,,,,
1478536504.02,-3.087584,-0.726625,3.037993,-0.585236,-0.180574,-2.154740,-0.040348,0.664351,0.746331,0.623020,-0.474074,-0.091729,16.147161,31.935644,34.495396,,,,,,
1478536504.03,-3.063136,-0.728430,3.067707,0.632613,0.653488,-2.083783,-0.058486,0.665699,0.743925,0.755157,-0.896503,-0.257719,15.865889,31.867582,34.688316,,,,,,
1478536504.04,-3.029584,-0.742595,3.098531,1.829588,1.416002,-2.048713,-0.082346,0.676202,0.732099,0.624796,-1.040353,-0.233869,15.865889,31.867582,34.688316,,,,,,
1478536504.05,-2.981511,-0.765737,3.137214,2.759008,2.230226,-2.468488,-0.114906,0.693069,0.711655,0.027916,-0.900390,-0.153687,14.131247,32.768364,34.598999,,,,,,
1478536504.06,-2.923636,-0.793840,-3.100051,3.323944,2.467968,-2.540385,-0.151605,0.713051,0.684525,-0.448187,-0.562050,-0.024536,14.131247,32.768364,34.598999,,,,,,
1478536504.07,-2.863606,-0.823231,-3.051045,3.538218,2.259053,-2.397629,-0.186566,0.733346,0.653756,-0.372195,-0.212319,-0.101525,11.052917,35.175987,33.332142,,,,,,
1478536504.08,-2.807723,-0.852300,-3.000434,3.618663,1.498062,-2.142010,-0.215711,0.752797,0.621905,-0.105136,0.030742,-0.220065,11.052917,35.175987,33.332142,,,,,,
1478536504.09,-2.764811,-0.882177,-2.955726,3.632070,0.676671,-1.373682,-0.233809,0.772124,0.590895,-0.033052,0.190324,-0.426497,7.629951,38.013790,31.101192,,,,,,
1478536504.10,-2.733199,-0.915408,-2.921334,3.725273,0.412193,-0.451711,-0.242041,0.792811,0.559345,0.091269,0.417241,-0.435214,7.629951,38.013790,31.101192,,,,,,
1478536504.12,-2.705587,-0.952907,-2.891675,4.044886,0.331107,0.004380,-0.244658,0.815103,0.525119,0.260344,0.587454,-0.252398,5.775108,40.500992,28.228823,,,,,,
1478536504.13,-2.674153,-0.995404,-2.856151,4.586148,0.129850,0.059744,-0.245201,0.838979,0.485789,0.441246,0.624568,-0.200770,5.775108,40.500992,28.228823,,,,,,
1478536504.14,-2.643467,-1.037824,-2.819127,4.290739,-0.132691,0.330957,-0.242758,0.861301,0.446352,0.560370,0.251386,-0.323152,5.465841,42.740631,24.777241,,,,,,
1478536504.15,-2.628539,-1.078726,-2.797856,3.777446,-0.372738,1.295271,-0.231898,0.881357,0.411623,0.656123,-0.340936,-0.326860,5.465841,42.740631,24.777241,,,,,,
1478536504.16,-2.632204,-1.116525,-2.797156,2.916546,-0.508417,1.808828,-0.213982,0.898581,0.383098,0.696373,-0.767630,0.141148,5.795131,44.792721,20.750359,,,,,,
1478536504.17,-2.664444,-1.153543,-2.807645,3.039377,-2.878576,2.126563,-0.186111,0.914205,0.359988,0.771972,-0.806585,0.030241,6.567123,45.445484,19.029705,,,,,,
1478536504.18,-2.734804,-1.182340,-2.831304,1.400377,-5.083660,1.850682,-0.149861,0.925495,0.347852,-0.375682,0.963772,-0.739255,6.567123,45.445484,19.029705,,,,,,
1478536504.19,-2.844910,-1.184190,-2.876725,-0.804032,-6.649944,1.530099,-0.110230,0.926194,0.360575,-0.948532,2.512603,0.292409,9.298645,46.176563,15.868483,,,,,,
1478536504.20,-2.931895,-1.178830,-2.918964,-0.716846,-3.600561,1.326575,-0.079520,0.924160,0.373638,-1.355691,3.374577,2.154850,9.298645,46.176563,15.868483,,,,,,
1478536504.21,-2.972371,-1.188451,-2.956555,1.209872,0.451646,1.568071,-0.062835,0.927792,0.367768,-0.691605,1.948383,1.846923,12.711928,45.780376,14.598376,,,,,,
1478536504.22,-2.980891,-1.220134,-2.998299,3.142494,3.600434,2.037079,-0.054967,0.939145,0.339094,0.309102,0.370044,0.617296,12.711928,45.780376,14.598376,,,,,,
1478536504.23,-2.991459,-1.257426,-3.063960,2.995001,5.199012,2.711949,-0.046107,0.951300,0.304799,0.716167,-0.750998,-0.244435,14.857508,45.670052,12.808195,,,,,,
1478536504.24,-3.019276,-1.280149,3.131536,1.366269,5.248837,2.679009,-0.034965,0.958059,0.284431,0.898872,-1.297872,-0.233604,15.483899,45.575409,12.396764,,,,,,
1478536504.25,-3.061901,-1.284383,3.046865,-0.180656,2.894931,2.226680,-0.022490,0.959263,0.281617,1.048735,-1.202275,-0.436753,15.483899,45.575409,12.396764,,,,,,
1478536504.26,3.132457,-1.278132,2.956412,-0.762125,-1.215802,2.551365,0.002636,0.957479,0.288492,1.077946,-0.977544,-0.866388,16.883335,44.830509,13.256207,,,,,,
1478536504.27,3.009018,-1.270597,2.861702,-0.393549,-3.552892,2.643969,0.039089,0.955277,0.293116,0.924137,-0.796128,-0.778681,16.883335,44.830509,13.256207,,,,,,
1478536504.28,2.901516,-1.268993,2.788144,0.484311,-3.382138,1.797696,0.070677,0.954802,0.288718,0.284761,-0.564665,-0.274222,20.030039,43.713810,12.587656,,,,,,
1478536504.29,2.827338,-1.279909,2.742829,1.608769,-2.860038,0.673099,0.088653,0.957990,0.272757,-0.521850,0.035922,-0.187063,20.030039,43.713810,12.587656,,,,,,
1478536504.30,2.759427,-1.298872,2.702072,2.153346,-2.637747,0.366915,0.100164,0.963256,0.249209,-1.053334,0.559510,-0.540683,21.693018,43.570457,10.078545,,,,,,
1478536504.32,2.697081,-1.318949,2.658475,2.157982,-1.646232,0.112313,0.107157,0.968454,0.224977,-1.102824,0.439002,-0.384569,21.693018,43.570457,10.078545,,,,,,
1478536504.33,2.662992,-1.339395,2.632088,1.959186,-0.550641,-0.456050,0.105620,0.973346,0.203573,-1.097045,0.212018,-0.140218,22.179152,43.889172,7.237047,,,,,,
1478536504.34,2.651933,-1.359520,2.621062,1.740643,0.110900,-0.748777,0.098631,0.977764,0.185066,-0.826033,0.184254,-0.013267,22.179152,43.889172,7.237047,,,,,,
1478536504.35,2.652770,-1.378566,2.618399,1.610644,0.371511,-0.802885,0.089714,0.981581,0.168674,-0.407066,0.096712,0.004925,21.579327,44.433277,5.528587,,,,,,
1478536504.36,2.646802,-1.397307,2.609108,1.661078,0.261750,-0.656809,0.081969,0.984988,0.151918,-0.126829,0.057278,0.038542,21.579327,44.433277,5.528587,,,,,,
1478536504.37,2.629424,-1.415752,2.590357,1.678284,0.044813,-0.582991,0.075678,0.988005,0.134609,0.057973,0.088243,-0.001461,20.891842,44.913094,4.110207,,,,,,
1478536504.38,2.603873,-1.433127,2.566548,1.562242,-0.245781,-0.522117,0.070289,0.990538,0.117868,0.101998,0.138749,0.029699,20.891842,44.913094,4.110207,,,,,,
1478536504.39,2.564381,-1.449398,2.530178,1.558343,-0.358076,-0.407444,0.066083,0.992640,0.101481,0.033541,0.125249,0.079839,20.394768,45.257450,2.522970,,,,,,
1478536504.40,2.501225,-1.464892,2.470848,1.567623,-0.389972,-0.285353,0.063159,0.994397,0.084763,-0.004138,0.060885,0.132506,20.394768,45.257450,2.522970,,,,,,
1478536504.41,2.414118,-1.478448,2.386728,1.469861,-0.320943,-0.182455,0.061323,0.995739,0.068873,-0.040434,0.116352,0.154790,20.107544,45.447372,0.878367,,,,,,
1478536504.42,2.304217,-1.487130,2.282824,1.074765,-0.727982,0.141270,0.062082,0.996502,0.055942,-0.074625,0.115085,0.166363,20.048832,45.481613,0.126283,,,,,,
1478536504.43,2.179552,-1.491329,2.170468,0.937041,-1.412174,0.226871,0.065123,0.996844,0.045395,0.130647,-0.141452,-0.289384,20.048832,45.481613,0.126283,,,,,,
1478536504.44,2.006389,-1.493582,2.019977,1.122064,-2.429405,0.440493,0.069935,0.997020,0.032548,0.180264,-0.347774,-0.675798,20.246073,45.373882,-1.362398,,,,,,
1478536504.45,1.797528,-1.492416,1.839187,1.260232,-2.747351,0.553330,0.076296,0.996930,0.017601,0.235762,-0.468365,-0.679604,20.246073,45.373882,-1.362398,,,,,,
1478536504.46,1.577825,-1.488145,1.645738,1.476207,-2.459442,0.588381,0.082555,0.996586,0.000580,0.129420,-0.399098,-0.554001,20.601158,45.085381,-3.667357,,,,,,
1478536504.47,1.367232,-1.480513,1.455607,1.689048,-1.838020,0.520868,0.088299,0.995927,-0.018227,0.076541,-0.067399,-0.479789,20.601158,45.085381,-3.667357,,,,,,
1478536504.48,1.175206,-1.471250,1.277928,1.768733,-1.315302,0.331679,0.091707,0.995049,-0.038297,0.017882,0.137076,-0.337176,20.899323,44.684788,-6.085777,,,,,,
1478536504.49,1.042199,-1.461926,1.152186,1.406834,-0.563259,0.202152,0.093826,0.994079,-0.054798,0.049927,-0.055893,-0.085492,20.899323,44.684788,-6.085777,,,,,,
1478536504.50,0.956458,-1.454799,1.067379,1.048065,-0.022394,0.040668,0.094576,0.993280,-0.066713,0.145094,0.047278,0.140657,21.005730,44.362617,-7.827282,,,,,,
1478536504.51,0.898280,-1.449501,1.006809,0.776668,0.229919,-0.010435,0.094652,0.992653,-0.075377,0.187895,0.163475,0.242750,21.005730,44.362617,-7.827282,,,,,,
1478536504.53,0.868818,-1.446644,0.974183,0.350425,0.285794,-0.048193,0.094555,0.992303,-0.079963,0.247104,0.354041,0.381645,21.036434,44.217751,-8.532727,,,,,,
1478536504.54,0.862713,-1.446737,0.965424,-0.011558,0.220797,-0.078077,0.093995,0.992314,-0.080479,0.249449,0.544215,0.538868,21.036434,44.217751,-8.532727,,,,,,
1478536504.55,0.874954,-1.448766,0.976180,-0.279744,0.126295,-0.061957,0.093427,0.992564,-0.078031,0.147723,0.553686,0.521650,21.017309,44.232082,-8.505540,,,,,,
1478536504.56,0.901872,-1.451690,1.002461,-0.443374,0.069193,-0.006938,0.093217,0.992915,-0.073688,0.028548,0.389302,0.388782,21.017309,44.232082,-8.505540,,,,,,
1478536504.57,0.937652,-1.454633,1.037695,-0.486371,0.079738,0.031509,0.093437,0.993261,-0.068577,-0.085548,0.245906,0.243672,21.006208,44.313465,-8.099677,,,,,,
1478536504.58,0.972768,-1.457408,1.071614,-0.429123,0.163640,-0.051253,0.093509,0.993578,-0.063702,-0.186419,0.132474,0.103284,21.032339,44.345261,-7.854130,,,,,,
1478536504.59,0.995817,-1.459889,1.092971,-0.283815,0.158376,-0.056425,0.092883,0.993856,-0.060190,-0.221286,-0.033147,-0.198020,21.032339,44.345261,-7.854130,,,,,,
1478536504.60,1.003891,-1.461382,1.100598,-0.089127,-0.003425,-0.087677,0.092114,0.994020,-0.058641,-0.137738,-0.022173,-0.345534,20.996681,44.424877,-7.491211,,,,,,
1478536504.61,0.990914,-1.461867,1.089897,0.103009,-0.299008,-0.094631,0.090942,0.994073,-0.059567,-0.089874,-0.097695,-0.419772,20.996681,44.424877,-7.491211,,,,,,
1478536504.62,0.970043,-1.461669,1.073952,0.161907,-0.523900,-0.074041,0.089842,0.994052,-0.061563,-0.031004,-0.128741,-0.357825,20.876762,44.457741,-7.630128,,,,,,
1478536504.63,0.942398,-1.461201,1.052723,0.218565,-0.646999,-0.100580,0.088482,0.994000,-0.064296,-0.028530,-0.098523,-0.254261,20.876762,44.457741,-7.630128,,,,,,
1478536504.64,0.910915,-1.460819,1.028045,0.224907,-0.654113,-0.132256,0.086714,0.993959,-0.067283,-0.035643,-0.074845,-0.168908,20.688717,44.465393,-8.084215,,,,,,
1478536504.65,0.879221,-1.460586,1.002251,0.223881,-0.543843,-0.157435,0.084717,0.993933,-0.070145,-0.046661,-0.054297,-0.103485,20.688717,44.465393,-8.084215,,,,,,
1478536504.66,0.847301,-1.460537,0.974473,0.225969,-0.360477,-0.196067,0.082471,0.993928,-0.072845,-0.061414,-0.032777,-0.071671,20.447256,44.492157,-8.538526,,,,,,
1478536504.67,0.815315,-1.460555,0.944834,0.225805,-0.204522,-0.212193,0.080087,0.993930,-0.075433,-0.058740,-0.024340,-0.067237,20.447256,44.492157,-8.538526,,,,,,
1478536504.68,0.784021,-1.460488,0.914385,0.234653,-0.065913,-0.218085,0.077735,0.993922,-0.077949,-0.038214,-0.060405,-0.078850,20.207874,44.539410,-8.856156,,,,,,
1478536504.69,0.752983,-1.460223,0.882873,0.251272,0.051695,-0.221057,0.075458,0.993893,-0.080516,-0.022449,-0.059689,-0.081670,20.207874,44.539410,-8.856156,,,,,,
1478536504.70,0.722435,-1.459544,0.851158,0.281230,0.094943,-0.195599,0.073410,0.993818,-0.083289,-0.006454,-0.030530,-0.085946,20.007866,44.584469,-9.080720,,,,,,
1478536504.71,0.693472,-1.458518,0.821455,0.272934,0.037791,-0.170225,0.071619,0.993703,-0.086165,0.032690,-0.007726,-0.083620,20.007866,44.584469,-9.080720,,,,,,
1478536504.73,0.668183,-1.457513,0.796538,0.229898,-0.087664,-0.135614,0.070036,0.993590,-0.088732,0.073564,0.026033,-0.055433,19.851377,44.605564,-9.317478,,,,,,
1478536504.74,0.648536,-1.456646,0.778822,0.165536,-0.228181,-0.090019,0.068800,0.993492,-0.090777,0.113512,0.049690,-0.025876,19.781160,44.610161,-9.443933,,,,,,
1478536504.75,0.636203,-1.455976,0.769648,0.094523,-0.329304,-0.028015,0.068070,0.993415,-0.092154,0.122650,0.089135,0.016531,19.781160,44.610161,-9.443933,,,,,,
1478536504.76,0.629465,-1.455523,0.766360,0.042672,-0.318728,0.000493,0.067713,0.993363,-0.092974,0.052816,0.066283,0.027072,19.679300,44.606018,-9.673519,,,,,,
1478536504.77,0.627548,-1.455563,0.766832,-0.020388,-0.189284,0.003530,0.067511,0.993368,-0.093071,-0.004965,0.027735,0.032204,19.679300,44.606018,-9.673519,,,,,,
1478536504.78,0.628629,-1.455871,0.768563,-0.035901,-0.011219,-0.005832,0.067432,0.993403,-0.092751,-0.018008,-0.001674,0.013436,19.635656,44.605553,-9.763929,,,,,,
1478536504.79,0.630350,-1.456260,0.769091,-0.029814,0.152183,-0.020767,0.067364,0.993448,-0.092323,-0.022076,-0.000879,-0.010582,19.635656,44.605553,-9.763929,,,,,,
1478536504.80,0.630940,-1.456797,0.766868,-0.028673,0.300891,-0.056375,0.067103,0.993509,-0.091852,-0.023356,0.000219,-0.035727,19.639088,44.620659,-9.687708,,,,,,
1478536504.81,0.630811,-1.457432,0.762729,-0.019501,0.401306,-0.078788,0.066719,0.993581,-0.091351,-0.016929,-0.000493,-0.066761,19.639088,44.620659,-9.687708,,,,,,
1478536504.82,0.627080,-1.458088,0.754384,0.009188,0.436429,-0.116987,0.065996,0.993655,-0.091072,-0.013688,0.002103,-0.089394,19.643656,44.655689,-9.515514,,,,,,
1478536504.83,0.620233,-1.458633,0.743535,0.028952,0.345092,-0.123745,0.065055,0.993716,-0.091081,0.007164,0.013226,-0.097518,19.643656,44.655689,-9.515514,,,,,,
1478536504.84,0.614895,-1.458753,0.735714,0.043084,0.188741,-0.050994,0.064499,0.993730,-0.091329,0.037765,0.019851,-0.092570,19.607271,44.698799,-9.387270,,,,,,
1478536504.85,0.614209,-1.458356,0.734439,0.037168,0.014915,0.026669,0.064664,0.993685,-0.091696,0.034701,-0.007067,-0.069223,19.607271,44.698799,-9.387270,,,,,,
1478536504.86,0.617347,-1.457598,0.738779,0.027305,-0.142773,0.094190,0.065388,0.993600,-0.092107,-0.004673,-0.029534,-0.047145,19.626366,44.687386,-9.401694,,,,,,
1478536504.87,0.624592,-1.456842,0.747919,-0.010283,-0.171754,0.130930,0.066492,0.993514,-0.092240,-0.028696,-0.066070,-0.034515,19.626366,44.687386,-9.401694,,,,,,
1478536504.88,0.636209,-1.456074,0.761068,-0.020765,-0.125128,0.166786,0.068013,0.993427,-0.092075,-0.055363,-0.121829,-0.019284,19.709061,44.636951,-9.468066,,,,,,
1478536504.89,0.646262,-1.454856,0.772274,0.034581,-0.100013,0.161028,0.069663,0.993286,-0.092352,-0.060829,-0.109253,-0.030893,19.777550,44.602386,-9.488114,,,,,,
1478536504.90,0.648847,-1.453404,0.775862,0.101350,-0.089152,0.094354,0.070774,0.993117,-0.093322,-0.041324,0.008927,-0.050248,19.777550,44.602386,-9.488114,,,,,,
1478536504.91,0.644021,-1.451913,0.771506,0.155064,-0.030215,0.036491,0.071211,0.992942,-0.094846,-0.015471,0.170434,0.017667,19.864777,44.538837,-9.603721,,,,,,
1478536504.92,0.635790,-1.450077,0.763205,0.209053,0.004818,0.026867,0.071511,0.992722,-0.096895,-0.005578,0.092132,0.049486,19.864777,44.538837,-9.603721,,,,,,
1478536504.94,0.623828,-1.447983,0.751380,0.248583,-0.040441,-0.003686,0.071561,0.992468,-0.099431,-0.015683,0.047968,0.064412,19.889254,44.487339,-9.789945,,,,,,
1478536504.95,0.605813,-1.446091,0.734436,0.260795,-0.143595,-0.076640,0.070827,0.992234,-0.102248,-0.022564,0.079818,0.048796,19.889254,44.487339,-9.789945,,,,,,
1478536504.96,0.578712,-1.451148,0.710150,0.185330,-0.328987,-0.142069,0.065285,0.992851,-0.099927,-0.017769,0.051247,0.023160,19.807262,44.459724,-10.077402,,,,,,
1478536504.97,0.561308,-1.450758,0.697500,0.092145,-0.493278,-0.084224,0.063742,0.992804,-0.101375,-0.015173,-0.014212,0.024547,19.807262,44.459724,-10.077402,,,,,,
1478536504.98,0.547185,-1.450798,0.687982,0.047167,-0.410551,-0.100988,0.062283,0.992809,-0.102232,-0.033704,0.188099,-0.003314,19.440165,44.604294,-10.153105,,,,,,
1478536504.99,0.532604,-1.450563,0.676474,0.109018,-0.265496,-0.100091,0.060905,0.992781,-0.103330,-0.059913,0.173662,-0.007876,19.440165,44.604294,-10.153105,,,,,,
1478536505.00,0.513659,-1.449805,0.659122,0.170882,-0.128673,-0.149339,0.059306,0.992689,-0.105121,-0.044063,0.042528,-0.015545,19.275221,44.627445,-10.363668,,,,,,
1478536505.01,0.494117,-1.449243,0.639296,0.147631,0.063190,-0.187254,0.057505,0.992621,-0.106751,-0.033885,-0.020194,0.011551,19.275221,44.627445,-10.363668,,,,,,
1478536505.02,0.473533,-1.453215,0.616671,0.115903,0.209536,-0.258873,0.053498,0.993095,-0.104402,-0.010910,-0.043526,0.026201,19.106472,44.667267,-10.503656,,,,,,
1478536505.03,0.454091,-1.453431,0.594488,0.082790,0.246030,-0.210909,0.051364,0.993121,-0.105230,-0.000033,-0.047518,0.016835,19.106472,44.667267,-10.503656,,,,,,
1478536505.04,0.442562,-1.453513,0.580754,0.050621,0.183260,-0.123235,0.050112,0.993130,-0.105741,0.045102,-0.098340,-0.002245,18.875891,44.803368,-10.339619,,,,,,
1478536505.05,0.436576,-1.453552,0.573369,0.023583,0.108370,-0.061039,0.049462,0.993135,-0.106004,0.081367,-0.115922,-0.017577,18.843460,44.819695,-10.328007,,,,,,
1478536505.06,0.426134,-1.453307,0.562080,0.108423,0.074915,-0.138969,0.048453,0.993106,-0.106736,0.089547,-0.174564,-0.017989,18.843460,44.819695,-10.328007,,,,,,
1478536505.07,0.401676,-1.451943,0.536439,0.260943,0.100012,-0.219363,0.046358,0.992945,-0.109136,0.066969,-0.088465,-0.026026,21.589935,37.566521,-10.721970,,,,,,
1478536505.08,0.374123,-1.449614,0.507394,0.341696,0.111537,-0.208580,0.044179,0.992666,-0.112524,0.055965,-0.038489,0.004935,21.589935,37.566521,-10.721970,,,,,,
1478536505.09,0.407558,-1.444200,0.538946,0.215226,0.139706,-0.121335,0.050045,0.991997,-0.115917,0.050770,-0.051232,0.000499,21.451464,37.591671,-10.910109,,,,,,
1478536505.10,0.400352,-1.443078,0.530211,0.123200,0.130993,-0.034212,0.049642,0.991855,-0.117299,0.004023,0.016675,-0.071574,21.451464,37.591671,-10.910109,,,,,,
1478536505.11,0.400735,-1.442048,0.529118,0.086476,0.152332,0.048297,0.050085,0.991723,-0.118221,-0.033102,-0.038080,-0.100209,21.716393,37.418682,-10.980436,,,,,,
1478536505.12,0.409971,-1.441088,0.536039,0.036413,0.252698,0.135411,0.051555,0.991600,-0.118627,-0.047130,-0.077323,-0.033381,21.716393,37.418682,-10.980436,,,,,,
1478536505.14,0.428189,-1.440530,0.551218,-0.048634,0.308457,0.208055,0.053937,0.991527,-0.118171,-0.044583,-0.134792,0.018149,21.857176,37.356342,-10.913149,,,,,,
1478536505.15,0.451082,-1.440486,0.571337,-0.116436,0.265827,0.228646,0.056647,0.991522,-0.116944,-0.047430,-0.125418,0.022309,21.857176,37.356342,-10.913149,,,,,,
1478536505.16,0.439436,-1.443926,0.557902,-0.118387,0.187589,0.120773,0.053830,0.991963,-0.114509,-0.040326,-0.053852,0.014060,22.086599,37.279285,-10.712914,,,,,,
1478536505.17,0.444189,-1.444342,0.561459,-0.010286,0.090330,0.000103,0.054196,0.992015,-0.113879,-0.035138,0.093983,-0.002790,22.086599,37.279285,-10.712914,,,,,,
1478536505.18,0.438858,-1.442947,0.556178,0.191839,-0.051877,-0.003163,0.054176,0.991838,-0.115419,-0.012031,0.135634,-0.004424,21.964767,37.381592,-10.606361,,,,,,
1478536505.19,0.424595,-1.440317,0.542072,0.326376,0.007652,-0.073360,0.053599,0.991500,-0.118556,-0.009470,0.101686,-0.008549,21.964767,37.381592,-10.606361,,,,,,
1478536505.20,0.408074,-1.437300,0.524910,0.345009,0.042403,-0.074905,0.052820,0.991103,-0.122171,-0.019601,0.043840,0.027704,21.923811,37.339397,-10.837231,,,,,,
1478536505.21,0.361458,-1.433009,0.478842,0.309452,-0.070678,-0.035492,0.048573,0.990522,-0.128477,-0.030857,0.000994,-0.024325,21.900719,37.316471,-10.962162,,,,,,
1478536505.22,0.351624,-1.429537,0.470603,0.367441,-0.188386,0.032334,0.048491,0.990039,-0.132176,-0.063979,-0.044513,-0.097469,21.900719,37.316471,-10.962162,,,,,,
1478536505.23,0.345822,-1.424923,0.467730,0.443188,-0.308807,0.140935,0.049272,0.989379,-0.136751,-0.116227,-0.113845,-0.105238,21.733252,37.271259,-11.438900,,,,,,
