timestamp(unix),attitude_roll(radians),attitude_pitch(radians),attitude_yaw(radians),rotation_rate_x(radians/s),rotation_rate_y(radians/s),rotation_rate_z(radians/s),gravity_x(G),gravity_y(G),gravity_z(G),user_acc_x(G),user_acc_y(G),user_acc_z(G),magnetic_field_x(microteslas),magnetic_field_y(microteslas),magnetic_field_z(microteslas),latitude(degree),longitude(degree),altitude(meter),speed(m/s),course(degree),timestamp(unix)
1478478744.67,-0.005338,0.457299,-2.964897,-0.099352,-0.643632,0.041244,-0.004790,-0.441526,-0.897236,-0.008180,-0.024828,0.020282,0.389320,-51.303284,-33.755135,,,,,,
1478478744.68,-0.012247,0.456141,-2.964150,-0.109658,-0.616774,0.074982,-0.010995,-0.440487,-0.897692,-0.010734,-0.045445,-0.003111,-0.068162,-51.286858,-33.782265,,,,,,
1478478744.69,-0.018539,0.455429,-2.963266,-0.042166,-0.537207,0.073387,-0.016648,-0.439847,-0.897918,-0.009154,-0.055865,0.009140,-0.068162,-51.286858,-33.782265,,,,,,
1478478744.70,-0.023721,0.455970,-2.962650,0.083259,-0.442218,0.044159,-0.021296,-0.440333,-0.897582,-0.009542,-0.040410,0.042937,-0.566578,-51.223709,-33.873260,,,,,,
1478478744.71,-0.027762,0.457244,-2.961642,0.123796,-0.305303,0.114794,-0.024907,-0.441477,-0.896927,-0.016642,-0.031332,0.047790,-0.760614,-51.242058,-33.841702,,,,,,
1478478744.72,-0.030618,0.458051,-2.959867,0.070744,-0.162362,0.137370,-0.027457,-0.442201,-0.896496,-0.054956,-0.021864,0.030346,-0.760614,-51.242058,-33.841702,,,,,,
1478478744.73,-0.031447,0.459224,-2.958795,0.131028,0.007940,0.076496,-0.028184,-0.443253,-0.895954,-0.054229,-0.020813,0.029804,-1.077217,-51.312408,-33.726311,,,,,,
1478478744.74,-0.041994,0.462028,-2.953660,0.162093,0.053383,-0.010898,-0.037580,-0.445764,-0.894361,-0.047168,0.029901,0.075636,-1.077217,-51.312408,-33.726311,,,,,,
1478478744.75,-0.041426,0.463668,-2.954521,0.151157,-0.006528,-0.099575,-0.037042,-0.447232,-0.893651,-0.108268,0.006940,0.082097,-1.645132,-51.445404,-33.500023,,,,,,
1478478744.76,-0.042632,0.465509,-2.956805,0.178911,-0.301947,-0.242589,-0.038084,-0.448877,-0.892781,-0.064867,0.023676,0.026036,-1.645132,-51.445404,-33.500023,,,,,,
1478478744.77,-0.046834,0.468154,-2.960675,0.262610,-0.634349,-0.359641,-0.041780,-0.451240,-0.891424,-0.034285,0.026511,0.007101,-1.561164,-51.562363,-33.323765,,,,,,
1478478744.78,-0.054180,0.471900,-2.964850,0.350291,-0.974960,-0.380834,-0.048234,-0.454579,-0.889399,-0.013518,0.036214,-0.000371,-1.561164,-51.562363,-33.323765,,,,,,
1478478744.79,-0.064821,0.476052,-2.969421,0.379490,-1.276212,-0.418253,-0.057573,-0.458274,-0.886945,-0.038130,0.144309,-0.058505,-1.678102,-51.774620,-32.987270,,,,,,
1478478744.80,-0.077302,0.480165,-2.974304,0.345485,-1.430789,-0.443117,-0.068492,-0.461925,-0.884270,-0.027760,0.094280,-0.028175,-1.678102,-51.774620,-32.987270,,,,,,
1478478744.81,-0.090208,0.483359,-2.979244,0.240721,-1.438891,-0.437133,-0.079765,-0.464756,-0.881839,-0.037361,0.063450,-0.066434,-2.114138,-52.043686,-32.535721,,,,,,
1478478744.82,-0.102034,0.484814,-2.984121,0.037272,-1.288148,-0.420539,-0.090119,-0.466044,-0.880160,-0.058960,0.035670,-0.073621,-2.114138,-52.043686,-32.535721,,,,,,
1478478744.83,-0.110711,0.483711,-2.989068,-0.195605,-0.954631,-0.395190,-0.097809,-0.465067,-0.879856,-0.047043,0.035929,-0.037640,-2.589962,-52.189865,-32.266045,,,,,,
1478478744.84,-0.117357,0.481234,-2.993409,-0.300277,-0.823572,-0.320421,-0.103789,-0.462873,-0.880327,-0.016099,0.000746,0.011248,-2.589962,-52.189865,-32.266045,,,,,,
1478478744.85,-0.124002,0.477689,-2.998198,-0.407739,-0.821255,-0.378428,-0.109839,-0.459728,-0.881241,-0.002527,-0.016789,0.055100,-2.819562,-52.066628,-32.445396,,,,,,
1478478744.87,-0.129195,0.473688,-3.003874,-0.450463,-0.715794,-0.449507,-0.114650,-0.456171,-0.882475,-0.005864,-0.012365,0.116393,-2.910499,-51.946331,-32.629669,,,,,,
1478478744.88,-0.132459,0.468787,-3.010722,-0.578355,-0.552621,-0.532601,-0.117824,-0.451805,-0.884302,-0.078938,0.103416,0.109629,-2.910499,-51.946331,-32.629669,,,,,,
1478478744.89,-0.131992,0.462229,-3.018345,-0.738370,-0.182317,-0.564465,-0.117798,-0.445944,-0.887275,-0.089523,0.069449,0.101020,-2.862501,-51.637848,-33.119873,,,,,,
1478478744.90,-0.127356,0.454776,-3.026236,-0.797338,0.190943,-0.581429,-0.114103,-0.439261,-0.891084,-0.123919,0.096274,0.110276,-2.862501,-51.637848,-33.119873,,,,,,
1478478744.91,-0.120131,0.447929,-3.034445,-0.699375,0.387316,-0.627482,-0.108019,-0.433100,-0.894850,-0.142607,0.063105,0.174498,-2.308681,-51.142723,-33.921669,,,,,,
1478478744.92,-0.112194,0.443209,-3.042737,-0.463352,0.402709,-0.670940,-0.101141,-0.428840,-0.897701,-0.140802,0.058525,0.195308,-2.308681,-51.142723,-33.921669,,,,,,
1478478744.93,-0.105781,0.441573,-3.051714,-0.163330,0.176622,-0.775625,-0.095457,-0.427362,-0.899027,-0.132967,0.043146,0.167856,-1.353257,-50.712822,-34.611649,,,,,,
1478478744.94,-0.103254,0.443438,-3.060911,0.175554,-0.152144,-0.848582,-0.093101,-0.429047,-0.898471,-0.119621,0.033448,0.098178,-1.353257,-50.712822,-34.611649,,,,,,
1478478744.95,-0.102450,0.448700,-3.070749,0.488293,-0.381035,-0.905205,-0.092148,-0.433795,-0.896287,-0.107865,0.034289,0.011247,-0.484918,-50.674568,-34.690643,,,,,,
1478478744.96,-0.103179,0.456790,-3.080723,0.730640,-0.504255,-0.931514,-0.092436,-0.441070,-0.892700,-0.133532,0.071456,-0.068299,-0.484918,-50.674568,-34.690643,,,,,,
1478478744.97,-0.104256,0.466081,-3.090379,0.793855,-0.505420,-0.895015,-0.092967,-0.449389,-0.888486,-0.123570,0.063433,-0.059482,0.193846,-51.071014,-34.107208,,,,,,
1478478744.98,-0.105222,0.473943,-3.099220,0.605451,-0.470331,-0.791626,-0.093451,-0.456398,-0.884855,-0.108896,0.033531,-0.043475,0.193846,-51.071014,-34.107208,,,,,,
1478478744.99,-0.107276,0.478699,-3.106065,0.311677,-0.498840,-0.555001,-0.095036,-0.460625,-0.882493,-0.090191,0.003883,0.005768,0.780523,-51.579353,-33.324898,,,,,,
1478478745.00,-0.110838,0.479572,-3.109905,-0.042752,-0.517074,-0.260555,-0.098133,-0.461399,-0.881748,-0.035274,-0.059520,0.050007,0.780523,-51.579353,-33.324898,,,,,,
1478478745.01,-0.116196,0.476547,-3.110465,-0.373402,-0.505796,0.070529,-0.103017,-0.458714,-0.882592,0.061681,-0.133419,0.084649,0.949990,-51.722527,-33.097816,,,,,,
1478478745.02,-0.116980,0.470763,-3.110593,-0.584368,0.048642,0.017652,-0.104017,-0.453566,-0.885132,0.125898,-0.175508,0.182449,0.771497,-51.620811,-33.260853,,,,,,
1478478745.03,-0.115687,0.464109,-3.111394,-0.652635,0.053270,0.006776,-0.103219,-0.447627,-0.888243,0.153161,-0.160970,0.279830,0.771497,-51.620811,-33.260853,,,,,,
1478478745.04,-0.116577,0.457099,-3.112979,-0.673332,-0.185947,-0.090054,-0.104372,-0.441347,-0.891246,-0.024199,-0.093107,0.361827,0.742768,-51.203190,-33.900871,,,,,,
1478478745.05,-0.114463,0.451370,-3.115850,-0.529127,0.196744,-0.199908,-0.102775,-0.436199,-0.893962,-0.015191,0.048717,0.190593,0.742768,-51.203190,-33.900871,,,,,,
1478478745.06,-0.109475,0.447248,-3.118046,-0.371710,0.402219,-0.110346,-0.098510,-0.432486,-0.896243,-0.167679,0.125662,0.201526,0.845119,-50.752224,-34.570004,,,,,,
1478478745.08,-0.105170,0.443819,-3.118096,-0.331258,0.424367,0.077511,-0.094806,-0.429391,-0.898129,-0.279813,0.084955,0.168804,0.845119,-50.752224,-34.570004,,,,,,
1478478745.09,-0.100215,0.437676,-3.115998,-0.663657,0.614645,0.298847,-0.090617,-0.423836,-0.901195,-0.228551,0.049370,0.019191,1.194349,-50.482384,-34.952682,,,,,,
1478478745.10,-0.092116,0.426510,-3.113075,-1.165905,0.984758,0.338086,-0.083745,-0.413696,-0.906555,-0.230800,0.080215,0.042664,1.194349,-50.482384,-34.952682,,,,,,
1478478745.11,-0.081134,0.409755,-3.113942,-1.735965,0.971093,-0.059925,-0.074336,-0.398385,-0.914201,-0.106527,0.233773,0.127015,1.417881,-49.897217,-35.774914,,,,,,
1478478745.12,-0.071819,0.387889,-3.119265,-2.215301,0.577381,-0.347189,-0.066426,-0.378235,-0.923323,-0.019435,0.130768,0.255782,1.417881,-49.897217,-35.774914,,,,,,
1478478745.13,-0.069640,0.363105,-3.123642,-2.409245,-0.160078,-0.144987,-0.065047,-0.355178,-0.932533,-0.033235,-0.066513,0.335441,2.196198,-48.462105,-37.658844,,,,,,
1478478745.14,-0.079038,0.338077,-3.124134,-2.333988,-1.175286,0.189662,-0.074486,-0.331674,-0.940449,-0.134483,-0.000952,0.314610,2.196198,-48.462105,-37.658844,,,,,,
1478478745.15,-0.096540,0.316835,-3.124290,-1.904183,-1.777053,0.145929,-0.091592,-0.311560,-0.945802,-0.064871,0.055350,0.306413,1.885840,-46.516788,-40.052711,,,,,,
1478478745.16,-0.116223,0.299318,-3.125757,-1.614988,-1.928661,0.000583,-0.110806,-0.294869,-0.949091,0.022793,0.020714,0.129954,1.885840,-46.516788,-40.052711,,,,,,
1478478745.17,-0.134322,0.282970,-3.129221,-1.587712,-1.752807,-0.155299,-0.128593,-0.279209,-0.951581,0.022620,0.048099,-0.083331,0.239151,-44.932590,-41.863979,,,,,,
1478478745.18,-0.147499,0.266036,-3.134262,-1.689733,-1.238198,-0.246404,-0.141795,-0.262909,-0.954344,0.009135,0.075287,-0.166993,-0.511544,-44.230167,-42.603027,,,,,,
1478478745.19,-0.154258,0.248002,-3.140800,-1.818884,-0.661607,-0.374515,-0.148946,-0.245468,-0.957894,-0.076503,0.066940,-0.187477,-0.511544,-44.230167,-42.603027,,,,,,
1478478745.20,-0.155947,0.228924,3.133486,-1.953967,-0.279691,-0.591409,-0.151264,-0.226930,-0.962093,-0.170193,0.032777,-0.159962,-1.246188,-42.664379,-44.156372,,,,,,
1478478745.21,-0.154308,0.209016,3.121726,-2.062679,-0.025887,-0.848687,-0.150352,-0.207498,-0.966612,-0.064233,-0.038978,-0.119127,-1.246188,-42.664379,-44.156372,,,,,,
1478478745.22,-0.150780,0.188984,3.107492,-2.086680,0.083468,-1.074094,-0.147535,-0.187861,-0.971052,-0.088167,-0.117833,-0.106814,-0.879267,-40.805283,-45.888378,,,,,,
1478478745.23,-0.147877,0.169303,3.091937,-2.058012,-0.028010,-1.178500,-0.145232,-0.168496,-0.974944,-0.096513,-0.130271,-0.069367,-0.879267,-40.805283,-45.888378,,,,,,
1478478745.24,-0.147414,0.150293,3.076290,-1.985250,-0.253787,-1.189582,-0.145225,-0.149728,-0.978004,-0.078942,-0.140967,-0.056924,0.072755,-38.772633,-47.626308,,,,,,
1478478745.25,-0.150942,0.132154,3.060590,-1.908370,-0.657520,-1.212318,-0.149058,-0.131770,-0.980009,-0.051030,-0.155279,-0.085893,0.072755,-38.772633,-47.626308,,,,,,
1478478745.26,-0.159800,0.115143,3.045045,-1.810376,-1.154316,-1.182894,-0.158068,-0.114889,-0.980722,0.013841,-0.124521,-0.082633,0.645348,-36.761684,-49.190948,,,,,,
1478478745.28,-0.173650,0.100747,3.030677,-1.465655,-1.547519,-1.090334,-0.171903,-0.100577,-0.979966,0.081922,-0.095529,-0.076995,0.645348,-36.761684,-49.190948,,,,,,
1478478745.29,-0.188728,0.092171,3.018429,-0.852115,-1.489268,-0.961041,-0.186813,-0.092041,-0.978074,0.125321,-0.096008,-0.095229,0.210077,-34.967026,-50.486141,,,,,,
1478478745.30,-0.199588,0.090106,3.008457,-0.218745,-0.974237,-0.871061,-0.197462,-0.089984,-0.976172,0.162549,-0.092115,-0.096811,0.210077,-34.967026,-50.486141,,,,,,
1478478745.31,-0.202994,0.094068,3.000232,0.340087,-0.184704,-0.829715,-0.200711,-0.093930,-0.975137,0.170804,-0.013477,-0.194022,-0.529642,-34.231369,-50.985493,,,,,,
1478478745.32,-0.198095,0.101907,2.993461,0.669409,0.568406,-0.739558,-0.195781,-0.101731,-0.975357,0.137965,0.089829,-0.269715,-0.529642,-34.231369,-50.985493,,,,,,
1478478745.33,-0.189496,0.109752,2.989236,0.609499,0.804464,-0.473361,-0.187230,-0.109531,-0.976190,0.039312,0.063725,-0.231756,0.057707,-34.673588,-50.688526,,,,,,
1478478745.34,-0.182600,0.113481,2.985902,0.171464,0.507781,-0.360617,-0.180419,-0.113238,-0.977050,-0.049241,0.023394,-0.214692,0.057707,-34.673588,-50.688526,,,,,,
1478478745.35,-0.181937,0.112124,2.981302,-0.326645,-0.155049,-0.425300,-0.179799,-0.111889,-0.977319,-0.115581,-0.027363,-0.217154,1.133499,-35.170139,-50.332531,,,,,,
1478478745.36,-0.186200,0.107231,2.974940,-0.626594,-0.526883,-0.539867,-0.184063,-0.107025,-0.977070,-0.072636,0.031418,-0.213832,1.290015,-35.056026,-50.408318,,,,,,
1478478745.37,-0.189707,0.100809,2.966312,-0.797635,-0.356825,-0.736534,-0.187614,-0.100639,-0.977074,-0.068459,0.048667,-0.195106,1.290015,-35.056026,-50.408318,,,,,,
1478478745.38,-0.191748,0.092334,2.956085,-1.031976,-0.293384,-0.801084,-0.189764,-0.092203,-0.977491,-0.046030,-0.023504,0.017164,1.251487,-34.337288,-50.901588,,,,,,
1478478745.39,-0.194309,0.082308,2.945966,-1.136432,-0.327925,-0.739460,-0.192435,-0.082215,-0.977860,-0.021966,-0.117965,0.071900,1.251487,-34.337288,-50.901588,,,,,,
1478478745.40,-0.196104,0.071874,2.936431,-1.148879,-0.201082,-0.685364,-0.194346,-0.071812,-0.978301,-0.024404,-0.142009,0.026976,1.472409,-33.185410,-51.654121,,,,,,
1478478745.41,-0.195983,0.061828,2.926426,-1.112962,0.006388,-0.771747,-0.194359,-0.061788,-0.978983,0.057411,-0.088129,0.043329,1.472409,-33.185410,-51.654121,,,,,,
1478478745.42,-0.193815,0.052208,2.915651,-1.093088,0.174061,-0.842972,-0.192341,-0.052184,-0.979940,0.133045,-0.062485,0.006765,1.805196,-31.918180,-52.436234,,,,,,
1478478745.43,-0.191800,0.042684,2.904534,-1.093887,0.119822,-0.864144,-0.190453,-0.042671,-0.980769,0.137138,-0.034050,-0.013311,1.805196,-31.918180,-52.436234,,,,,,
1478478745.44,-0.191161,0.033118,2.893602,-1.087718,-0.000323,-0.837498,-0.189895,-0.033112,-0.981246,0.118010,-0.024779,-0.038331,2.521564,-30.665636,-53.149300,,,,,,
1478478745.45,-0.191562,0.023463,2.883390,-1.085606,-0.082659,-0.751452,-0.190340,-0.023461,-0.981438,0.054583,-0.043953,-0.098610,2.521564,-30.665636,-53.149300,,,,,,
1478478745.46,-0.191843,0.014117,2.874631,-0.998974,-0.005401,-0.612916,-0.190649,-0.014117,-0.981557,-0.010446,-0.012098,-0.148280,3.009955,-29.393568,-53.838146,,,,,,
1478478745.47,-0.189169,0.006527,2.867363,-0.781012,0.350058,-0.521333,-0.188039,-0.006527,-0.982140,-0.038294,0.007412,-0.155128,3.009955,-29.393568,-53.838146,,,,,,
1478478745.49,-0.182379,0.001227,2.861360,-0.540542,0.728089,-0.450656,-0.181370,-0.001227,-0.983414,-0.089138,0.017005,-0.152832,3.487891,-28.288721,-54.398258,,,,,,
1478478745.50,-0.173807,-0.001390,2.856523,-0.250733,0.815921,-0.393991,-0.172933,0.001390,-0.984933,-0.096690,0.018966,-0.102760,3.487891,-28.288721,-54.398258,,,,,,
1478478745.51,-0.165844,-0.000488,2.852873,0.121420,0.736144,-0.346798,-0.165085,0.000488,-0.986279,-0.066437,-0.024612,-0.088138,4.582282,-27.720430,-54.609230,,,,,,
1478478745.52,-0.159083,0.003692,2.849966,0.416965,0.601816,-0.337811,-0.158411,-0.003692,-0.987366,-0.033300,-0.044770,-0.069106,5.121070,-27.717066,-54.563049,,,,,,
1478478745.53,-0.154343,0.009922,2.847350,0.569073,0.404788,-0.328611,-0.153723,-0.009922,-0.988064,0.014929,-0.019909,-0.100223,5.121070,-27.717066,-54.563049,,,,,,
1478478745.54,-0.150343,0.015778,2.845371,0.493635,0.375292,-0.258068,-0.149759,-0.015777,-0.988597,0.066141,-0.004227,-0.106206,5.944149,-28.188902,-54.236893,,,,,,
1478478745.55,-0.146628,0.020105,2.843047,0.332187,0.343719,-0.295433,-0.146074,-0.020104,-0.989069,0.133745,-0.025886,-0.063604,5.944149,-28.188902,-54.236893,,,,,,
1478478745.56,-0.142407,0.024010,2.839220,0.343860,0.426854,-0.465918,-0.141886,-0.024008,-0.989592,0.163309,-0.090479,0.004835,6.522174,-28.662476,-53.921345,,,,,,
1478478745.57,-0.138847,0.028987,2.833007,0.375846,0.207801,-0.715635,-0.138343,-0.028983,-0.989960,0.107353,-0.103829,0.036713,6.522174,-28.662476,-53.921345,,,,,,
1478478745.58,-0.141108,0.032622,2.824817,0.180860,-0.317936,-0.835900,-0.140566,-0.032616,-0.989534,0.036119,-0.066154,0.027910,7.250196,-28.981468,-53.657215,,,,,,
1478478745.59,-0.142948,0.034297,2.816655,0.010245,-0.158799,-0.765009,-0.142377,-0.034290,-0.989218,0.046964,-0.019680,0.121481,7.250196,-28.981468,-53.657215,,,,,,
1478478745.60,-0.144456,0.035662,2.809327,0.055972,-0.177643,-0.697802,-0.143863,-0.035654,-0.988955,0.107028,-0.105795,-0.148282,7.493421,-29.015526,-53.605370,,,,,,
1478478745.61,-0.145872,0.038638,2.802289,0.232526,-0.146812,-0.708039,-0.145247,-0.038629,-0.988641,0.144255,-0.121436,-0.040045,7.493421,-29.015526,-53.605370,,,,,,
1478478745.62,-0.146842,0.043914,2.795023,0.450671,-0.113959,-0.781484,-0.146174,-0.043900,-0.988284,0.094248,-0.069762,-0.052701,7.739053,-29.022047,-53.566925,,,,,,
1478478745.63,-0.147828,0.051329,2.787280,0.628949,-0.139660,-0.832440,-0.147096,-0.051306,-0.987791,0.058244,0.001791,-0.161822,7.739053,-29.022047,-53.566925,,,,,,
1478478745.64,-0.150074,0.059017,2.780702,0.607844,-0.299399,-0.676742,-0.149251,-0.058983,-0.987039,0.054647,0.003868,-0.221641,8.086395,-29.443485,-53.284885,,,,,,
1478478745.65,-0.155510,0.064282,2.776251,0.358521,-0.633175,-0.430643,-0.154564,-0.064238,-0.985892,0.091469,-0.009508,-0.236688,8.086395,-29.443485,-53.284885,,,,,,
1478478745.66,-0.164632,0.066079,2.773669,0.058517,-0.955766,-0.227163,-0.163532,-0.066031,-0.984326,0.114338,0.020575,-0.130695,8.025464,-29.932222,-53.021141,,,,,,
1478478745.67,-0.176049,0.066516,2.771505,0.032392,-1.139024,-0.218315,-0.174754,-0.066467,-0.982366,0.139063,0.030670,-0.011668,7.617483,-29.982382,-53.052979,,,,,,
1478478745.68,-0.187772,0.070314,2.769131,0.434845,-1.096227,-0.312570,-0.186209,-0.070257,-0.979995,0.238409,0.030935,0.059325,7.617483,-29.982382,-53.052979,,,,,,
1478478745.70,-0.195831,0.080519,2.767326,1.093879,-0.644186,-0.359744,-0.193951,-0.080432,-0.977708,0.248822,0.021945,0.060884,6.528928,-30.124859,-53.117359,,,,,,
1478478745.71,-0.197362,0.097535,2.766831,1.718149,0.026197,-0.366954,-0.195151,-0.097381,-0.975927,0.141486,0.039138,-0.038737,6.528928,-30.124859,-53.117359,,,,,,
1478478745.72,-0.192128,0.118121,2.766688,1.942586,0.626421,-0.405735,-0.189618,-0.117846,-0.974760,-0.084674,0.036013,-0.271761,6.242653,-31.463394,-52.370522,,,,,,
1478478745.73,-0.182775,0.137720,2.765603,1.740005,0.950930,-0.463196,-0.180038,-0.137285,-0.974032,-0.156586,0.068514,-0.274884,6.242653,-31.463394,-52.370522,,,,,,
1478478745.74,-0.170925,0.152800,2.763164,1.233149,1.124815,-0.474675,-0.168112,-0.152206,-0.973946,-0.187235,0.086380,-0.218116,7.274397,-33.431942,-50.999767,,,,,,
1478478745.75,-0.158192,0.161764,2.760345,0.653027,1.174834,-0.368608,-0.155476,-0.161059,-0.974622,-0.152263,0.066821,-0.128986,7.274397,-33.431942,-50.999767,,,,,,
1478478745.76,-0.146286,0.165017,2.758264,0.166651,1.064077,-0.194697,-0.143785,-0.164269,-0.975880,-0.048018,0.030388,-0.034298,8.789344,-34.510578,-50.033539,,,,,,
1478478745.77,-0.136656,0.164649,2.757756,-0.088845,0.849302,0.013737,-0.134388,-0.163906,-0.977279,-0.018337,0.024792,0.120071,8.789344,-34.510578,-50.033539,,,,,,
1478478745.78,-0.129924,0.163496,2.759000,-0.074998,0.594626,0.160504,-0.127831,-0.162769,-0.978348,0.056252,-0.000699,0.243409,9.944872,-34.606636,-49.750053,,,,,,
1478478745.79,-0.125507,0.163676,2.761298,0.084492,0.426859,0.224509,-0.123504,-0.162946,-0.978874,0.129287,-0.007845,0.252831,9.944872,-34.606636,-49.750053,,,,,,
1478478745.80,-0.121143,0.165169,2.764101,0.197689,0.484234,0.247250,-0.119202,-0.164419,-0.979162,0.147339,0.001653,0.180761,10.403423,-34.617916,-49.648327,,,,,,
1478478745.81,-0.115752,0.167235,2.766825,0.228403,0.576181,0.217933,-0.113883,-0.166457,-0.979450,0.114447,0.023726,0.069660,10.553782,-34.735081,-49.534630,,,,,,
1478478745.82,-0.109846,0.169376,2.768912,0.220600,0.592723,0.157445,-0.108057,-0.168567,-0.979749,0.053903,0.025043,0.011686,10.553782,-34.735081,-49.534630,,,,,,
1478478745.83,-0.104440,0.171370,2.770635,0.201052,0.517296,0.142492,-0.102723,-0.170532,-0.979983,0.018022,0.022812,0.020098,11.003830,-35.014038,-49.239422,,,,,,
1478478745.84,-0.100491,0.172878,2.772873,0.149377,0.374162,0.214070,-0.098827,-0.172019,-0.980124,-0.008061,0.024237,0.021445,11.003830,-35.014038,-49.239422,,,,,,
1478478745.85,-0.097832,0.174094,2.775495,0.141408,0.279969,0.232716,-0.096199,-0.173216,-0.980174,-0.018745,0.000746,0.051753,11.372988,-35.244568,-48.990440,,,,,,
1478478745.86,-0.095553,0.175566,2.777696,0.170680,0.247278,0.171141,-0.093941,-0.174665,-0.980136,0.009209,-0.004610,0.083255,11.372988,-35.244568,-48.990440,,,,,,
1478478745.87,-0.093298,0.177590,2.778754,0.207360,0.225065,0.045720,-0.091697,-0.176658,-0.979992,-0.005638,0.012198,0.123317,11.497576,-35.449135,-48.813442,,,,,,
1478478745.88,-0.090952,0.179570,2.778258,0.170667,0.212449,-0.096865,-0.089367,-0.178606,-0.979854,-0.008824,0.005572,0.099010,11.497576,-35.449135,-48.813442,,,,,,
1478478745.90,-0.088479,0.181090,2.776681,0.122632,0.205409,-0.175933,-0.086918,-0.180102,-0.979800,-0.035228,0.001528,0.079028,11.720203,-35.647903,-48.615341,,,,,,
1478478745.91,-0.086274,0.182643,2.774787,0.140671,0.164794,-0.186025,-0.084734,-0.181629,-0.979710,-0.049772,-0.005779,0.042957,11.720203,-35.647903,-48.615341,,,,,,
1478478745.92,-0.084788,0.184560,2.773352,0.180511,0.096566,-0.132787,-0.083249,-0.183514,-0.979486,-0.046420,-0.003803,0.016809,12.048043,-35.738190,-48.468689,,,,,,
1478478745.93,-0.088940,0.183686,2.773616,0.237952,-0.095669,-0.026916,-0.087329,-0.182655,-0.979291,-0.009885,0.009193,-0.002917,12.048043,-35.738190,-48.468689,,,,,,
1478478745.94,-0.091766,0.186579,2.775050,0.305622,-0.290961,0.155194,-0.090047,-0.185499,-0.978510,0.030401,0.027845,0.006403,11.952736,-35.768833,-48.469688,,,,,,
1478478745.95,-0.097071,0.190345,2.778604,0.421377,-0.494668,0.343045,-0.095169,-0.189198,-0.977316,0.065765,0.057667,0.025061,11.952736,-35.768833,-48.469688,,,,,,
1478478745.96,-0.105657,0.196005,2.784251,0.660556,-0.800117,0.512319,-0.103441,-0.194753,-0.975383,0.087114,0.081197,0.049815,11.450914,-36.161530,-48.299152,,,,,,
1478478745.97,-0.118585,0.205150,2.792027,1.046871,-1.176195,0.656702,-0.115826,-0.203715,-0.972155,0.100613,0.107035,0.088961,11.450914,-36.161530,-48.299152,,,,,,
1478478745.98,-0.135856,0.217662,2.801788,1.362268,-1.535209,0.780149,-0.132243,-0.215948,-0.967408,0.115657,0.142675,0.122529,10.122065,-37.061756,-47.911980,,,,,,
1478478745.99,-0.157484,0.231284,2.813597,1.451680,-1.903301,0.938507,-0.152658,-0.229227,-0.961327,0.139962,0.163034,0.124993,9.100586,-37.787666,-47.548492,,,,,,
1478478746.00,-0.183973,0.244173,2.827745,1.417593,-2.299613,1.128673,-0.177511,-0.241754,-0.953963,0.164510,0.175393,0.147383,9.100586,-37.787666,-47.548492,,,,,,
1478478746.01,-0.215025,0.255701,2.844155,1.361634,-2.652712,1.311662,-0.206435,-0.252923,-0.945206,0.175032,0.194833,0.248230,6.312783,-39.370930,-46.708309,,,,,,
1478478746.02,-0.249649,0.265392,2.862835,1.260423,-2.888715,1.507964,-0.238414,-0.262288,-0.935074,0.201976,0.195485,0.379868,6.312783,-39.370930,-46.708309,,,,,,
1478478746.03,-0.287665,0.272267,2.884082,1.105232,-3.151654,1.779982,-0.273263,-0.268916,-0.923586,0.231957,0.185084,0.510043,2.535503,-40.795017,-45.835854,,,,,,
1478478746.04,-0.330437,0.275363,2.908323,0.903388,-3.556336,2.108909,-0.312233,-0.271896,-0.910265,0.270287,0.214340,0.695254,2.535503,-40.795017,-45.835854,,,,,,
1478478746.05,-0.379697,0.274265,2.935137,0.710828,-4.153651,2.410561,-0.356787,-0.270839,-0.894063,0.329870,0.221813,0.755010,-2.199051,-41.804863,-44.934452,,,,,,
1478478746.06,-0.436395,0.269245,2.964249,0.602270,-4.819784,2.720720,-0.407447,-0.266003,-0.873630,0.401068,0.257550,0.778095,-2.199051,-41.804863,-44.934452,,,,,,
1478478746.07,-0.501073,0.260901,2.996539,0.660859,-5.520216,3.111137,-0.464110,-0.257951,-0.847386,0.470259,0.293977,0.763875,-8.433607,-42.170265,-43.842113,,,,,,
1478478746.08,-0.573403,0.249643,3.035083,1.001482,-6.079201,3.792681,-0.525677,-0.247058,-0.814018,0.528118,0.291645,0.718559,-8.433607,-42.170265,-43.842113,,,,,,
1478478746.09,-0.652145,0.233852,3.084684,1.554418,-6.448976,4.916846,-0.590373,-0.231726,-0.773151,0.565212,0.301047,0.623416,-16.448017,-41.989418,-41.688599,,,,,,
1478478746.11,-0.737220,0.210754,-3.135890,2.209268,-6.897099,6.165224,-0.657358,-0.209197,-0.723959,0.600595,0.374221,0.493567,-16.448017,-41.989418,-41.688599,,,,,,
1478478746.12,-0.829699,0.181081,-3.061157,3.190980,-7.624407,7.172836,-0.725666,-0.180093,-0.664060,0.653599,0.525857,0.344999,-26.503521,-41.029118,-37.225834,,,,,,
1478478746.13,-0.932100,0.145077,-2.973944,4.464504,-8.650637,8.054798,-0.794440,-0.144568,-0.589886,0.762686,0.657431,0.166409,-26.503521,-41.029118,-37.225834,,,,,,
1478478746.14,-1.044219,0.101523,-2.873973,6.009108,-9.775722,8.828281,-0.860081,-0.101349,-0.499989,0.880574,0.707352,-0.015514,-38.225647,-38.428036,-28.873407,,,,,,
1478478746.15,-1.164259,0.049024,-2.762102,7.626120,-10.838952,9.358928,-0.917392,-0.049005,-0.394956,0.827396,0.789529,-0.243594,-44.194382,-36.190514,-22.554178,,,,,,
1478478746.16,-1.281226,-0.016365,-2.643783,8.684114,-10.864345,9.751152,-0.958238,0.016364,-0.285503,0.774934,0.695154,-0.459615,-44.194382,-36.190514,-22.554178,,,,,,
1478478746.17,-1.382748,-0.094101,-2.528755,8.884810,-10.007393,9.754301,-0.978025,0.093962,-0.186115,0.701719,0.612138,-0.562619,-53.979893,-28.676470,-5.951349,,,,,,
1478478746.18,-1.462854,-0.182494,-2.426344,8.001122,-8.532125,9.717867,-0.977671,0.181483,-0.105944,0.514032,0.769048,-0.586851,-53.979893,-28.676470,-5.951349,,,,,,
1478478746.19,-1.517106,-0.276930,-2.349845,5.742248,-6.157769,9.429319,-0.960513,0.273404,-0.051620,0.325336,0.833544,-0.381775,-58.308746,-16.701687,9.629707,,,,,,
1478478746.20,-1.542374,-0.370786,-2.301286,3.510509,-3.031319,8.989880,-0.931666,0.362348,-0.026488,-0.029118,0.971011,-0.201662,-58.308746,-16.701687,9.629707,,,,,,
1478478746.21,-1.535222,-0.462567,-2.271051,2.069858,0.367634,8.769436,-0.894344,0.446247,-0.031829,-0.183049,0.598233,0.524261,-58.778008,-3.711895,17.405603,,,,,,
1478478746.22,-1.496393,-0.552759,-2.244474,1.725923,3.048960,8.641942,-0.848724,0.525038,-0.063264,-0.336365,0.628649,0.791689,-58.778008,-3.711895,17.405603,,,,,,
1478478746.23,-1.433352,-0.637469,-2.208541,2.088051,4.289351,8.167538,-0.796026,0.595164,-0.110104,-0.607020,0.706258,0.638958,-58.740257,7.847944,16.111483,,,,,,
1478478746.24,-1.355596,-0.711707,-2.157511,2.630190,4.301449,7.417212,-0.739781,0.653127,-0.161705,-0.846996,0.738627,0.240990,-58.740257,7.847944,16.111483,,,,,,
1478478746.25,-1.270715,-0.771560,-2.093524,2.947685,3.829990,6.363966,-0.684791,0.697254,-0.211891,-1.020531,0.669247,-0.075584,-57.729294,18.242079,10.302556,,,,,,
1478478746.26,-1.186869,-0.815383,-2.025619,2.800308,3.198813,5.148492,-0.635679,0.727988,-0.256798,-1.094621,0.549203,-0.128319,-57.729294,18.242079,10.302556,,,,,,
1478478746.27,-1.120737,-0.848262,-1.973205,1.211986,2.379040,3.857756,-0.595438,0.750132,-0.287672,-1.239325,0.418447,-0.081529,-55.495399,25.900530,4.583744,,,,,,
1478478746.28,-1.103052,-0.878668,-1.976207,-2.175859,1.998832,2.098230,-0.569629,0.769889,-0.287738,-1.279965,0.223855,0.037097,-55.495399,25.900530,4.583744,,,,,,
1478478746.29,-1.100904,-0.908545,-2.009777,-3.212472,2.856514,1.573300,-0.548250,0.788610,-0.278418,-1.301314,0.136423,0.196921,-53.665245,29.797821,1.928338,,,,,,
1478478746.31,-1.092373,-0.933276,-2.040357,-2.323250,3.223005,1.132295,-0.528376,0.803574,-0.274020,-1.408987,0.173293,0.545581,-53.193810,30.660585,1.390943,,,,,,
1478478746.32,-1.076830,-0.941915,-2.060854,-1.144277,2.859020,-0.170337,-0.517922,0.808686,-0.278897,-1.929909,-0.030458,2.225919,-53.193810,30.660585,1.390943,,,,,,
1478478746.33,-1.077787,-0.935359,-2.080808,-0.572045,0.880050,-1.331821,-0.522848,0.804812,-0.280905,-1.666499,-0.248767,1.037878,-52.739494,31.458149,-0.719890,,,,,,
1478478746.34,-1.100104,-0.920477,-2.099261,-0.175161,-1.174842,-1.831043,-0.539602,0.795891,-0.274569,-1.349894,-0.136863,0.411822,-52.739494,31.458149,-0.719890,,,,,,
1478478746.35,-1.131167,-0.901976,-2.112232,0.164503,-2.151519,-1.915127,-0.561099,0.784554,-0.263900,-1.082807,-0.040001,0.024627,-53.642479,29.890255,-0.803196,,,,,,
1478478746.36,-1.161388,-0.884029,-2.121497,0.183547,-2.135743,-1.720112,-0.581641,0.773300,-0.252391,-0.841378,0.128052,-0.198674,-53.642479,29.890255,-0.803196,,,,,,
1478478746.37,-1.186565,-0.869857,-2.130573,-0.058638,-1.565204,-1.360398,-0.597912,0.764236,-0.241752,-0.554874,0.188522,-0.241463,-54.748169,27.785275,1.484508,,,,,,
1478478746.38,-1.203945,-0.860046,-2.139870,-0.221859,-0.785256,-0.993267,-0.608992,0.757873,-0.234002,-0.322312,0.386002,-0.247001,-54.748169,27.785275,1.484508,,,,,,
1478478746.39,-1.213124,-0.853042,-2.148158,-0.247731,-0.125800,-0.757029,-0.616072,0.753285,-0.230256,-0.251024,0.405453,-0.209503,-55.404335,26.311825,3.104111,,,,,,
1478478746.40,-1.216584,-0.847328,-2.155146,-0.211668,0.233293,-0.639925,-0.620892,0.749514,-0.229612,-0.184803,0.356214,-0.199771,-55.404335,26.311825,3.104111,,,,,,
1478478746.41,-1.218284,-0.841742,-2.161196,-0.157595,0.260791,-0.635930,-0.625201,0.745805,-0.229998,-0.175031,0.261138,-0.214277,-55.800293,25.437511,3.293647,,,,,,
1478478746.42,-1.220310,-0.835475,-2.166427,-0.090911,0.142926,-0.689394,-0.630043,0.741616,-0.230331,-0.191155,0.188423,-0.208390,-55.800293,25.437511,3.293647,,,,,,
1478478746.43,-1.223897,-0.828388,-2.171315,-0.066495,-0.052942,-0.761775,-0.635792,0.736843,-0.229851,-0.208370,0.116459,-0.183876,-56.158928,24.660027,3.105674,,,,,,
1478478746.44,-1.230666,-0.820440,-2.177835,-0.178768,-0.226908,-0.889237,-0.642834,0.731446,-0.227489,-0.240802,0.058425,-0.152455,-56.158928,24.660027,3.105674,,,,,,
1478478746.45,-1.241142,-0.811640,-2.188542,-0.462955,-0.255484,-1.075599,-0.651247,0.725417,-0.222816,-0.262785,0.000886,-0.123619,-56.558029,23.708549,3.268241,,,,,,
1478478746.46,-1.256075,-0.801180,-2.204749,-0.770795,-0.334182,-1.347308,-0.661681,0.718178,-0.215405,-0.273286,-0.052544,-0.085255,-56.799820,23.087166,3.514426,,,,,,
1478478746.47,-1.275856,-0.788422,-2.225014,-0.963606,-0.564135,-1.638106,-0.674525,0.709241,-0.204921,-0.279668,-0.081586,-0.048603,-56.799820,23.087166,3.514426,,,,,,
1478478746.48,-1.297682,-0.773045,-2.246774,-1.001289,-0.618112,-1.862180,-0.689257,0.698318,-0.193071,-0.274778,-0.133651,0.046144,-57.429909,21.311962,4.381019,,,,,,
1478478746.49,-1.317912,-0.755458,-2.267191,-0.880645,-0.571481,-2.025570,-0.704805,0.685622,-0.182133,-0.272933,-0.084426,0.027714,-57.429909,21.311962,4.381019,,,,,,
1478478746.50,-1.336111,-0.735114,-2.284906,-0.686135,-0.595859,-2.221036,-0.721421,0.670671,-0.172485,-0.211776,-0.065523,-0.056519,-58.169960,18.905193,5.516961,,,,,,
1478478746.52,-1.351769,-0.711830,-2.301118,-0.626446,-0.390253,-2.508182,-0.739078,0.653221,-0.164517,-0.148876,-0.007545,-0.038455,-58.169960,18.905193,5.516961,,,,,,
1478478746.53,-1.364137,-0.684610,-2.319428,-0.828090,0.065657,-2.894084,-0.758182,0.632371,-0.158955,-0.123852,-0.026719,-0.110027,-58.946533,15.990503,6.418554,,,,,,
1478478746.54,-1.374777,-0.656716,-2.341337,-1.139794,0.311174,-2.901502,-0.776834,0.610519,-0.154256,-0.112219,0.004075,-0.202251,-58.946533,15.990503,6.418554,,,,,,
1478478746.55,-1.386149,-0.631590,-2.364297,-1.288663,0.193813,-2.584019,-0.793370,0.590429,-0.148182,-0.009776,0.206446,-0.025479,-59.815598,12.281799,6.545149,,,,,,
1478478746.56,-1.397259,-0.610587,-2.386262,-1.316990,0.170301,-2.164584,-0.807006,0.573348,-0.141469,0.060195,0.202500,0.039235,-59.815598,12.281799,6.545149,,,,,,
1478478746.57,-1.405317,-0.592987,-2.406884,-1.312582,0.422537,-1.864618,-0.817947,0.558840,-0.136603,0.207839,0.070692,-0.081720,-60.395473,8.978142,6.585387,,,,,,
1478478746.58,-1.409924,-0.576195,-2.427019,-1.309648,0.659840,-1.846506,-0.827715,0.544837,-0.134317,0.285387,0.031106,-0.124212,-60.395473,8.978142,6.585387,,,,,,
1478478746.59,-1.412677,-0.559149,-2.445207,-1.127721,0.661850,-1.808346,-0.837132,0.530465,-0.133481,0.243962,0.009819,-0.054431,-60.764305,6.406637,6.183975,,,,,,
1478478746.60,-1.413705,-0.544201,-2.460387,-0.953077,0.666549,-1.509102,-0.845006,0.517735,-0.133846,0.079763,0.107479,0.037166,-60.764305,6.406637,6.183975,,,,,,
1478478746.61,-1.414293,-0.534681,-2.475381,-1.180616,0.627850,-0.898507,-0.849915,0.509567,-0.134111,0.012986,0.266953,-0.053099,-61.034561,4.077145,5.454074,,,,,,
1478478746.62,-1.427139,-0.535925,-2.494963,-1.706046,-0.638024,0.132006,-0.850940,0.510636,-0.123091,0.152545,0.235290,-0.165346,-61.034561,4.077145,5.454074,,,,,,
1478478746.63,-1.454679,-0.545906,-2.513656,-1.540817,-2.043595,0.918519,-0.848902,0.519193,-0.099017,0.313364,0.136264,-0.084256,-61.103569,3.155231,5.290218,,,,,,
1478478746.64,-1.489368,-0.560516,-2.524507,-0.815868,-2.944847,1.401666,-0.844175,0.531623,-0.068892,0.388990,0.161355,0.056151,-60.972328,3.531887,6.441147,,,,,,
1478478746.65,-1.523900,-0.577201,-2.525345,0.044148,-3.312464,1.614067,-0.837072,0.545681,-0.039284,0.528097,0.010304,0.152764,-60.972328,3.531887,6.441147,,,,,,
1478478746.66,-1.555267,-0.593469,-2.518201,0.643108,-3.348860,1.519080,-0.828906,0.559240,-0.012873,0.363177,-0.234549,-0.124288,-60.310478,5.271517,10.317218,,,,,,
1478478746.67,-1.582619,-0.607584,-2.507103,0.922511,-3.127521,1.282671,-0.820972,0.570886,0.009707,0.149509,-0.382943,-0.304369,-60.310478,5.271517,10.317218,,,,,,
1478478746.68,-1.605382,-0.619490,-2.494554,1.018655,-2.755195,1.048427,-0.813688,0.580620,0.028153,0.115628,-0.273552,-0.279588,-59.267868,7.285051,14.346958,,,,,,
1478478746.69,-1.622937,-0.628913,-2.481830,1.020019,-2.242210,0.784685,-0.807568,0.588266,0.042145,0.138226,-0.153421,-0.138596,-59.267868,7.285051,14.346958,,,,,,
1478478746.70,-1.634633,-0.636528,-2.467675,1.176536,-1.828266,0.643821,-0.802526,0.594407,0.051301,0.082800,-0.141618,-0.006333,-58.228378,8.837004,17.405485,,,,,,
1478478746.71,-1.643439,-0.645626,-2.450813,1.386409,-1.821290,0.845418,-0.796617,0.601699,0.057971,-0.021209,-0.077331,0.102704,-58.228378,8.837004,17.405485,,,,,,
1478478746.73,-1.652635,-0.658403,-2.432212,1.556085,-1.961590,1.177699,-0.788323,0.611855,0.064659,-0.168006,0.027687,0.080147,-57.367199,10.188728,19.410873,,,,,,
1478478746.74,-1.655130,-0.674288,-2.409483,1.893942,-1.433565,1.421407,-0.778375,0.624342,0.065799,-0.161963,0.108996,-0.114841,-57.367199,10.188728,19.410873,,,,,,
1478478746.75,-1.656049,-0.691356,-2.386368,1.753791,-1.573356,1.473254,-0.767585,0.637582,0.065597,-0.109811,0.198828,-0.135055,-56.323025,12.373192,21.123659,,,,,,
1478478746.76,-1.668819,-0.707995,-2.369590,1.247730,-2.466752,1.467538,-0.756020,0.650312,0.074345,-0.113013,0.259569,-0.030385,-55.789154,13.655329,21.741434,,,,,,
1478478746.77,-1.688766,-0.724449,-2.356923,1.046268,-2.681706,1.443729,-0.743660,0.662723,0.088138,-0.162865,0.208279,-0.141498,-55.789154,13.655329,21.741434,,,,,,
1478478746.78,-1.705016,-0.740601,-2.345393,0.973108,-2.136579,1.419980,-0.731425,0.674731,0.098765,-0.287068,0.175595,-0.110240,-54.143505,15.929638,24.213945,,,,,,
1478478746.79,-1.720617,-0.756915,-2.337030,0.742597,-2.061734,1.471805,-0.718815,0.686682,0.108506,-0.263485,0.172296,-0.003663,-54.143505,15.929638,24.213945,,,,,,
1478478746.80,-1.739799,-0.774871,-2.330470,0.722213,-2.293673,1.683924,-0.704332,0.699624,0.120181,-0.189421,0.164039,0.003293,-52.486549,18.018286,26.307629,,,,,,
1478478746.81,-1.759901,-0.797602,-2.324702,0.782392,-2.310240,2.222259,-0.685974,0.715683,0.131290,-0.119369,0.108719,-0.102374,-52.486549,18.018286,26.307629,,,,,,
1478478746.82,-1.784396,-0.826619,-2.319936,0.873263,-2.792580,2.729653,-0.661973,0.735646,0.143588,-0.150191,0.009334,-0.214632,-50.430511,20.431978,28.476051,,,,,,
1478478746.83,-1.809660,-0.854002,-2.311226,1.217361,-3.059441,2.214203,-0.638318,0.753916,0.155438,-0.178866,-0.002756,-0.280271,-50.430511,20.431978,28.476051,,,,,,
1478478746.84,-1.828851,-0.874124,-2.294205,1.591953,-2.965047,1.411011,-0.620422,0.766982,0.163754,-0.045715,-0.040724,-0.269574,-47.484402,23.658510,30.936939,,,,,,
1478478746.85,-1.842692,-0.888975,-2.275696,1.337615,-2.695763,0.974761,-0.607056,0.776426,0.169247,-0.011047,-0.028273,-0.429425,-47.484402,23.658510,30.936939,,,,,,
1478478746.86,-1.858473,-0.898538,-2.265957,0.609707,-1.863957,0.658316,-0.597163,0.782417,0.176691,-0.217474,0.131447,-0.360926,-44.863644,25.944427,32.950382,,,,,,
1478478746.87,-1.859630,-0.907068,-2.264502,0.302683,0.266050,0.821519,-0.590538,0.787701,0.175474,-0.193275,0.198810,-0.201262,-44.863644,25.944427,32.950382,,,,,,
1478478746.88,-1.851277,-0.921560,-2.261503,0.641060,0.510019,1.458814,-0.580953,0.796546,0.167358,0.244466,0.096429,0.285401,-43.597008,27.018881,33.776745,,,,,,
1478478746.89,-1.845277,-0.943004,-2.256860,0.850864,0.148219,1.981834,-0.565372,0.809326,0.159202,0.415851,0.038956,0.737862,-43.597008,27.018881,33.776745,,,,,,
1478478746.90,-1.838239,-0.964871,-2.250926,0.861068,0.261788,1.867231,-0.549276,0.821975,0.150506,0.541067,-0.212814,0.233955,-42.942352,28.938562,33.016682,,,,,,
1478478746.91,-1.828945,-0.985262,-2.246469,0.668125,0.639443,1.820050,-0.534332,0.833417,0.141085,0.601471,-0.314145,-0.059466,-42.942352,28.938562,33.016682,,,,,,
1478478746.93,-1.820328,-1.006213,-2.249231,0.260539,1.178283,2.008661,-0.518492,0.844812,0.132134,0.463698,-0.242212,0.020378,-42.018150,31.153358,32.179665,,,,,,
1478478746.94,-1.811312,-1.027291,-2.258382,-0.022255,1.728857,2.068872,-0.502254,0.855901,0.123185,0.124141,-0.197378,0.011108,-41.713135,32.139622,31.601368,,,,,,
1478478746.95,-1.802319,-1.048868,-2.271669,-0.170981,1.986758,2.175205,-0.485251,0.866859,0.114398,0.020682,-0.288963,0.013273,-41.713135,32.139622,31.601368,,,,,,
1478478746.96,-1.795952,-1.071435,-2.287944,-0.272598,1.924586,2.288847,-0.466778,0.877889,0.106911,-0.017841,-0.365041,-0.007545,-41.400913,33.942436,30.090916,,,,,,
1478478746.97,-1.794075,-1.094620,-2.306044,-0.292327,1.597591,2.335782,-0.447005,0.888754,0.101499,-0.071870,-0.309119,-0.088315,-41.400913,33.942436,30.090916,,,,,,
1478478746.98,-1.797006,-1.119708,-2.323890,-0.176628,1.131030,2.604110,-0.424839,0.899973,0.097776,-0.024807,-0.349711,-0.163603,-40.847851,35.760487,28.709379,,,,,,
1478478746.99,-1.800116,-1.150280,-2.338540,0.188331,0.921757,3.042170,-0.397545,0.912878,0.092797,0.086937,-0.505606,-0.063256,-40.847851,35.760487,28.709379,,,,,,
1478478747.00,-1.797195,-1.180791,-2.345669,0.421770,0.917720,2.808903,-0.370491,0.924907,0.085342,0.201011,-0.551509,0.052552,-39.386913,38.028717,27.822205,,,,,,
1478478747.01,-1.796453,-1.208880,-2.356736,0.129118,1.132398,2.660012,-0.345091,0.935220,0.079221,0.230085,-0.412927,0.162600,-39.386913,38.028717,27.822205,,,,,,
1478478747.02,-1.802988,-1.234168,-2.379348,-0.258228,1.473204,2.445076,-0.321443,0.943874,0.076007,0.392976,-0.240123,0.180233,-37.643654,40.464783,26.779554,,,,,,
1478478747.03,-1.818967,-1.256573,-2.416669,-0.721552,1.985981,2.313217,-0.299609,0.951037,0.075919,-0.087476,-0.467653,-0.124717,-37.643654,40.464783,26.779554,,,,,,
1478478747.04,-1.850257,-1.277004,-2.477302,-1.310477,2.721676,2.346260,-0.278350,0.957152,0.079878,-0.395829,-0.481918,-0.139311,-36.432236,42.140530,25.854511,,,,,,
1478478747.05,-1.895165,-1.295411,-2.556169,-1.500262,2.884483,2.262279,-0.257738,0.962320,0.086663,-0.129560,-0.407175,0.173423,-36.432236,42.140530,25.854511,,,,,,
1478478747.06,-1.938751,-1.316229,-2.620328,-0.512281,1.215366,2.482553,-0.234971,0.967772,0.090584,0.066789,-0.328063,0.247093,-35.814442,43.187611,24.974857,,,,,,
1478478747.07,-1.969415,-1.339043,-2.649727,0.321719,-0.547411,2.117167,-0.211677,0.973265,0.089151,0.263770,0.095399,0.131140,-35.814442,43.187611,24.974857,,,,,,
1478478747.08,-2.000290,-1.354333,-2.679002,-0.113620,0.005070,1.406157,-0.195270,0.976663,0.089435,-0.014447,0.145987,-0.061283,-34.062576,44.740093,24.691141,,,,,,
1478478747.09,-2.012154,-1.361883,-2.688416,0.299800,-0.438571,0.494868,-0.187522,0.978257,0.088593,0.259498,0.076247,-0.464951,-33.256905,45.304142,24.760864,,,,,,
1478478747.10,-1.997879,-1.364126,-2.661264,0.615012,-1.436895,-0.116579,-0.186770,0.978720,0.084998,-0.005796,0.257151,-0.000968,-33.256905,45.304142,24.760864,,,,,,
1478478747.11,-1.990714,-1.367091,-2.633469,0.592680,-2.010328,0.114766,-0.184724,0.979324,0.082474,-0.369262,0.216675,0.293731,-32.550961,45.731556,24.912792,,,,,,
1478478747.12,-2.001445,-1.371909,-2.620328,0.326300,-2.274880,0.352092,-0.179539,0.980287,0.082481,-0.413417,0.235976,-0.369713,-32.550961,45.731556,24.912792,,,,,,
1478478747.14,-2.028662,-1.371228,-2.630979,-0.400751,-1.279712,-0.124085,-0.177826,0.980152,0.087631,0.058670,0.380718,-0.486664,-31.275749,46.120285,25.813444,,,,,,
1478478747.15,-2.057977,-1.365770,-2.654794,-0.676558,-0.401502,-0.195629,-0.179906,0.979056,0.095309,0.417455,0.409372,-0.061114,-31.275749,46.120285,25.813444,,,,,,
1478478747.16,-2.090344,-1.360605,-2.686096,-0.805227,-0.134335,-0.146806,-0.181115,0.977991,0.103591,0.188897,0.276953,0.180391,-30.787516,45.809380,26.929848,,,,,,
1478478747.17,-2.110506,-1.355464,-2.707204,-0.540870,0.095500,-0.229042,-0.183301,0.976905,0.109803,-0.179553,0.816277,0.227919,-30.787516,45.809380,26.929848,,,,,,
1478478747.18,-2.125877,-1.349185,-2.723783,-0.657286,0.098492,-0.373042,-0.186800,0.975545,0.115838,-0.319792,0.876140,0.117881,-30.917030,45.300308,27.633442,,,,,,
1478478747.19,-2.140663,-1.342168,-2.740987,-0.611566,0.217124,-0.330232,-0.190826,0.973978,0.122277,-0.241196,0.695104,0.043708,-30.917030,45.300308,27.633442,,,,,,
1478478747.20,-2.140570,-1.341613,-2.743409,0.156972,0.219239,0.112539,-0.191292,0.973852,0.122551,-0.196479,1.113062,0.003440,-31.327244,44.698944,28.145977,,,,,,
1478478747.21,-2.130041,-1.349794,-2.731064,0.735867,-0.308562,0.640010,-0.185813,0.975678,0.116300,-0.247750,0.186019,0.201052,-31.327244,44.698944,28.145977,,,,,,
1478478747.22,-2.122069,-1.361435,-2.717612,0.813389,-0.476533,0.815668,-0.177046,0.978164,0.108858,-0.122041,-0.090499,0.106718,-31.117884,45.029671,27.849482,,,,,,
1478478747.23,-2.116994,-1.373533,-2.709862,0.682465,-0.228608,0.944503,-0.167472,0.980607,0.101804,0.048270,-0.620148,-0.125623,-31.117884,45.029671,27.849482,,,,,,
1478478747.24,-2.125852,-1.383327,-2.713840,0.317425,-0.538257,0.742095,-0.158393,0.982479,0.098217,0.127296,-0.575405,-0.141598,-30.090885,46.024643,27.347002,,,,,,
1478478747.25,-2.145846,-1.385537,-2.731970,-0.354941,-0.011009,0.213283,-0.154576,0.982888,0.100183,0.123478,-0.575814,-0.143564,-30.090885,46.024643,27.347002,,,,,,
1478478747.26,-2.181897,-1.378620,-2.771657,-1.117118,0.259143,-0.248709,-0.156428,0.981591,0.109587,-0.094395,-0.292351,0.108110,-29.321676,46.470333,27.428726,,,,,,
1478478747.27,-2.222788,-1.369037,-2.813500,-1.115557,-0.053726,-0.248311,-0.159288,0.979716,0.121593,-0.093795,-0.096796,0.093007,-29.321676,46.470333,27.428726,,,,,,
1478478747.28,-2.245948,-1.362892,-2.836318,-0.551741,-0.092949,-0.180640,-0.161126,0.978466,0.129010,-0.068961,0.050282,0.084354,-29.612658,45.716713,28.366535,,,,,,
1478478747.29,-2.248927,-1.360628,-2.837505,-0.036580,-0.202762,-0.135782,-0.162466,0.977996,0.130878,0.157659,0.063340,0.010845,-29.612658,45.716713,28.366535,,,,,,
1478478747.30,-2.241834,-1.359430,-2.827362,0.083919,-0.276313,-0.272617,-0.164307,0.977745,0.130451,0.054276,0.035484,-0.080112,-29.700424,45.351330,28.857050,,,,,,
1478478747.31,-2.230088,-1.355966,-2.813089,0.014554,-0.174916,-0.466657,-0.168504,0.977013,0.130586,0.073259,-0.011879,-0.096956,-29.721331,45.310413,28.899771,,,,,,
1478478747.32,-2.212740,-1.353160,-2.794388,0.192993,-0.066560,-0.430342,-0.172940,0.976410,0.129284,0.077694,-0.011277,-0.095654,-29.721331,45.310413,28.899771,,,,,,
1478478747.34,-2.190712,-1.353694,-2.772874,0.461554,0.174566,-0.090808,-0.175321,0.976526,0.125141,0.153043,0.013678,-0.007160,-30.049093,45.084061,28.914824,,,,,,
1478478747.35,-2.174982,-1.363487,-2.761548,0.795454,0.539387,0.875526,-0.169389,0.978588,0.116929,0.150453,0.000248,0.040038,-30.049093,45.084061,28.914824,,,,,,
1478478747.36,-2.164144,-1.377909,-2.758887,0.785428,0.839286,1.086174,-0.158928,0.981455,0.107183,0.177056,-0.137522,-0.018667,-30.013744,45.547325,28.217079,,,,,,
1478478747.37,-2.167827,-1.387516,-2.768511,0.176976,0.332458,0.775653,-0.150727,0.983251,0.102462,0.164369,-0.327703,0.074845,-30.013744,45.547325,28.217079,,,,,,
1478478747.38,-2.222139,-1.387981,-2.816852,-0.948953,-0.926596,0.428660,-0.144579,0.983336,0.110217,0.186343,-0.818846,0.139341,-29.453890,46.505081,27.227434,,,,,,
1478478747.39,-2.312848,-1.379392,-2.890438,-1.630356,-2.022840,0.156470,-0.140221,0.981738,0.128563,0.235070,-0.836902,0.086677,-29.453890,46.505081,27.227434,,,,,,
1478478747.40,-2.393935,-1.371809,-2.948021,-1.023853,-2.296561,0.345229,-0.134405,0.980267,0.144953,0.097204,-0.332181,-0.104548,-28.386837,46.086552,29.013870,,,,,,
1478478747.41,-2.452361,-1.379838,-2.990427,0.440637,-1.372397,1.341746,-0.120702,0.981823,0.146475,-0.098337,-0.385982,-0.438056,-28.386837,46.086552,29.013870,,,,,,
1478478747.42,-2.498947,-1.401492,-3.028252,1.419863,-0.775741,1.822901,-0.100983,0.985702,0.134884,0.098587,-0.521148,-0.401287,-26.502190,46.092304,30.736315,,,,,,
1478478747.43,-2.515118,-1.425857,-3.038332,1.866656,-0.516870,1.362608,-0.084679,0.989515,0.117004,0.180291,-0.647092,-0.248855,-26.502190,46.092304,30.736315,,,,,,
1478478747.44,-2.484084,-1.447748,-3.005020,1.920088,-0.081061,0.757513,-0.075011,0.992439,0.097150,0.121840,-0.423729,0.211841,-24.413303,47.921482,29.649788,,,,,,
1478478747.45,-2.421338,-1.466294,-2.943167,1.712623,0.210886,0.598736,-0.068802,0.994545,0.078405,0.104278,-0.228248,0.259348,-24.413303,47.921482,29.649788,,,,,,
1478478747.46,-2.393344,-1.480839,-2.920691,0.955235,0.610829,0.876626,-0.061121,0.995957,0.065839,-0.044455,-0.433289,-0.031278,-23.618362,49.422844,27.769468,,,,,,
1478478747.47,-2.455979,-1.493904,-2.988324,0.528566,0.358468,1.312570,-0.048636,0.997045,0.059458,-0.035974,0.025400,-0.057795,-23.368731,49.949593,27.028284,,,,,,
1478478747.48,-2.659989,-1.506769,3.088770,0.084496,0.111138,2.017998,-0.029637,0.997951,0.056706,-0.013377,0.597355,0.092357,-23.368731,49.949593,27.028284,,,,,,
1478478747.49,-3.016601,-1.513434,2.731318,0.049129,-0.016028,2.114070,-0.007147,0.998355,0.056883,-0.035867,0.596951,0.092180,-23.368731,49.949593,27.028284,,,,,,
1478478747.50,2.912248,-1.513945,2.377593,0.145093,-0.189918,1.833854,0.012918,0.998384,0.055333,0.031730,0.808806,0.013713,-20.777269,51.387318,26.443077,,,,,,
1478478747.51,2.664628,-1.508457,2.137300,-0.085967,-0.975655,1.285746,0.028600,0.998058,0.055346,-0.098089,0.797078,0.016447,-19.712345,51.833786,26.386929,,,,,,
1478478747.52,2.555689,-1.503418,2.046010,-0.111309,-1.903473,0.576208,0.037229,0.997731,0.056098,-0.106717,0.797405,0.015694,-19.712345,51.833786,26.386929,,,,,,
1478478747.53,2.477975,-1.501018,1.989052,0.072963,-1.909578,0.406041,0.042946,0.997567,0.054924,-0.203805,0.578682,-0.021859,-17.836723,52.226681,26.940916,,,,,,
1478478747.55,2.418439,-1.500401,1.943429,0.173033,-1.124665,0.228665,0.046546,0.997523,0.052734,-0.156028,0.059804,-0.182265,-17.836723,52.226681,26.940916,,,,,,
1478478747.56,2.377656,-1.502054,1.908740,0.315538,-0.432857,-0.022568,0.047516,0.997638,0.049601,-0.081681,-0.018970,-0.257471,-16.498390,52.406158,27.440578,,,,,,
1478478747.57,2.343378,-1.506013,1.875935,0.428072,-0.040437,-0.135495,0.046360,0.997902,0.045187,-0.062458,0.344169,-0.146108,-16.498390,52.406158,27.440578,,,,,,
1478478747.58,2.319109,-1.510114,1.850030,0.369433,0.154835,-0.162941,0.044443,0.998159,0.041263,-0.095957,0.761988,0.066983,-16.317184,52.593678,27.189003,,,,,,
1478478747.59,2.280352,-1.513580,1.809867,0.393513,0.155621,-0.092698,0.043383,0.998364,0.037256,-0.168918,0.963901,0.168753,-16.317184,52.593678,27.189003,,,,,,
1478478747.60,2.275179,-1.519396,1.801737,0.382520,0.326698,-0.587553,0.039150,0.998679,0.033270,-0.182018,0.562432,0.091776,-16.546591,52.764351,26.715567,,,,,,
1478478747.61,2.339219,-1.525972,1.859958,0.151599,0.584707,-0.552316,0.032218,0.998996,0.031143,-0.103813,0.152570,0.081894,-16.546591,52.764351,26.715567,,,,,,
1478478747.62,2.368082,-1.528469,1.884478,0.129032,0.343535,-0.127897,0.029563,0.999104,0.030275,0.046624,-0.100499,0.045790,-17.354471,52.750862,26.225107,,,,,,
1478478747.63,2.297530,-1.529103,1.811705,0.282268,0.206765,0.213898,0.031150,0.999131,0.027694,0.130745,-0.587998,-0.003387,-17.354471,52.750862,26.225107,,,,,,
1478478747.64,2.191688,-1.529317,1.702775,0.374938,0.301000,0.250438,0.033728,0.999140,0.024124,0.191141,-0.826120,-0.047546,-17.570724,52.830929,25.918146,,,,,,
1478478747.65,2.087552,-1.529415,1.596670,0.327230,0.121813,0.201263,0.035968,0.999144,0.020439,0.147992,-0.161360,-0.111397,-17.570724,52.830929,25.918146,,,,,,
1478478747.66,2.007719,-1.529388,1.518750,0.268097,-0.334253,0.128389,0.037508,0.999143,0.017517,-0.008638,0.038974,-0.065567,-17.434250,53.108044,25.439547,,,,,,
1478478747.67,1.911987,-1.529116,1.432047,0.323734,-1.035420,0.165557,0.039266,0.999132,0.013942,-0.092702,0.075560,0.036778,-17.304049,53.206535,25.322359,,,,,,
1478478747.68,1.776985,-1.528039,1.314024,0.456318,-1.857758,0.254940,0.041839,0.999086,0.008751,-0.135955,-0.098039,0.010353,-17.304049,53.206535,25.322359,,,,,,
1478478747.69,1.646229,-1.523858,1.207979,0.368619,-2.459245,0.539779,0.046787,0.998899,0.003536,-0.095005,-0.058057,-0.010662,-16.427607,53.469799,25.351561,,,,,,
1478478747.70,1.542168,-1.515643,1.132544,0.354727,-2.835544,0.863582,0.055103,0.998479,-0.001578,-0.054065,-0.228963,-0.073022,-16.427607,53.469799,25.351561,,,,,,
1478478747.71,1.430770,-1.504734,1.050729,0.644311,-2.707834,1.029952,0.065368,0.997819,-0.009214,-0.038330,-0.284470,-0.080371,-14.356389,53.869102,25.760458,,,,,,
1478478747.72,1.328239,-1.492443,0.967131,0.786429,-1.519734,1.024212,0.075982,0.996932,-0.018800,-0.024728,-0.365279,-0.048964,-14.356389,53.869102,25.760458,,,,,,
1478478747.73,1.262585,-1.482744,0.912713,0.637383,-1.003522,0.710413,0.083794,0.996126,-0.026676,-0.007867,-0.272768,0.002903,-11.938956,54.511929,25.641731,,,,,,
1478478747.75,1.235507,-1.472084,0.889996,0.461458,-0.231329,0.962205,0.093065,0.995132,-0.032428,0.000014,-0.430267,-0.013150,-11.938956,54.511929,25.641731,,,,,,
1478478747.76,1.227787,-1.459561,0.882200,0.496148,0.007336,1.134059,0.104540,0.993820,-0.037334,-0.059175,-0.609542,0.146587,-10.573664,55.022766,25.145191,,,,,,
1478478747.77,1.211617,-1.445378,0.867557,0.663424,-0.179198,1.229154,0.117107,0.992145,-0.043970,-0.161815,-0.381855,0.127802,-10.573664,55.022766,25.145191,,,,,,
1478478747.78,1.184092,-1.431885,0.841623,0.820538,-0.118497,1.036618,0.128240,0.990367,-0.052220,-0.243337,0.365132,0.029454,-9.193079,55.546829,24.528038,,,,,,
1478478747.79,1.137443,-1.419103,0.791042,1.226500,0.486344,0.728108,0.137144,0.988517,-0.063455,-0.200514,0.493356,0.145928,-9.193079,55.546829,24.528038,,,,,,
1478478747.80,1.078393,-1.406769,0.717813,1.634885,1.525110,0.438064,0.143893,0.986578,-0.077196,0.134488,0.030497,0.086641,-8.106246,56.197567,23.403202,,,,,,
1478478747.81,1.038487,-1.392949,0.656490,1.383939,1.951824,0.835647,0.152434,0.984227,-0.089787,0.125948,0.032848,0.099232,-8.106246,56.197567,23.403202,,,,,,
1478478747.82,1.058590,-1.376167,0.664157,0.459473,0.913470,1.585512,0.168583,0.981119,-0.094787,0.058468,-0.229319,0.210327,-8.106246,56.197567,23.403202,,,,,,
1478478747.83,1.090993,-1.361774,0.690045,0.184471,0.696398,1.321519,0.184074,0.978234,-0.095785,-0.007575,-0.010690,0.251333,-7.526731,57.280281,20.830391,,,,,,
1478478747.84,1.114772,-1.351378,0.705405,0.182683,0.846544,0.968193,0.195419,0.976024,-0.095855,0.079895,0.583058,0.093276,-7.526731,57.280281,20.830391,,,,,,
1478478747.85,1.128361,-1.342665,0.712344,0.231787,0.557872,0.773863,0.204381,0.974091,-0.096827,-0.052129,1.556183,-0.034459,-6.367331,57.543392,20.489086,,,,,,
1478478747.86,1.136699,-1.334640,0.717883,0.199607,0.198198,0.727959,0.212267,0.972244,-0.098405,-0.452761,0.470169,-0.096221,-6.367331,57.543392,20.489086,,,,,,
1478478747.87,1.146709,-1.327349,0.727529,0.044448,0.034061,0.723584,0.219696,0.970513,-0.099189,-0.173691,-0.124459,-0.136971,-5.625217,57.736019,20.161758,,,,,,
1478478747.88,1.163577,-1.320434,0.745429,-0.165310,-0.088969,0.791314,0.227495,0.968823,-0.098125,0.167418,-0.197735,-0.118107,-5.625217,57.736019,20.161758,,,,,,
1478478747.89,1.181356,-1.313114,0.766656,-0.189649,-0.324518,0.842770,0.235758,0.966983,-0.096755,0.265127,-0.323413,-0.127030,-4.722421,57.811966,20.175798,,,,,,
1478478747.90,1.193188,-1.306626,0.782054,-0.097178,-0.237133,0.666021,0.242713,0.965309,-0.096270,0.172860,-0.141945,-0.104673,-4.722421,57.811966,20.175798,,,,,,
1478478747.91,1.198925,-1.301329,0.789171,0.055429,-0.094962,0.487988,0.248022,0.963913,-0.096733,0.072489,0.019867,-0.084221,-3.661037,57.812820,20.392693,,,,,,
1478478747.92,1.199179,-1.297788,0.791480,0.073988,-0.219284,0.286763,0.251225,0.962964,-0.097909,-0.029896,0.232867,-0.095802,-3.661037,57.812820,20.392693,,,,,,
1478478747.93,1.193173,-1.295109,0.787830,0.211739,-0.242199,0.170173,0.253030,0.962238,-0.100367,-0.133386,0.300045,-0.047339,-3.069292,57.862030,20.350727,,,,,,
1478478747.94,1.184686,-1.293287,0.781498,0.215261,-0.224145,0.085294,0.253792,0.961741,-0.103170,-0.122124,0.251775,0.054708,-3.069292,57.862030,20.350727,,,,,,
1478478747.96,1.176647,-1.292043,0.775147,0.199316,-0.144614,0.028530,0.254059,0.961399,-0.105667,-0.056641,0.142208,0.055831,-2.786366,57.956036,20.122669,,,,,,
1478478747.97,1.167328,-1.290988,0.766772,0.248622,-0.152752,0.002398,0.253996,0.961108,-0.108428,0.077058,0.105710,0.063643,-2.719356,57.999229,20.007050,,,,,,
1478478747.98,1.157211,-1.290001,0.758877,0.210478,-0.265499,0.000070,0.253754,0.960835,-0.111373,0.011138,-0.019246,-0.002992,-2.689641,58.050022,19.863243,,,,,,
1478478747.99,1.101807,-1.268685,0.708798,0.143264,-0.380640,-0.032056,0.265411,0.954710,-0.134482,0.014085,-0.032454,-0.029336,-2.689641,58.050022,19.863243,,,,,,
1478478748.00,1.094030,-1.269182,0.705518,0.031334,-0.445014,-0.103720,0.263935,0.954858,-0.136324,0.015560,-0.032602,-0.027494,-2.689641,58.050022,19.863243,,,,,,
1478478748.01,1.088545,-1.271019,0.703970,-0.054282,-0.349472,-0.202232,0.261629,0.955402,-0.136956,0.046797,0.012982,-0.025382,-1.696273,58.558769,18.427719,,,,,,
1478478748.02,1.081550,-1.273673,0.699716,0.013164,-0.277753,-0.299359,0.258425,0.956183,-0.137591,0.012907,0.146188,-0.032148,-1.696273,58.558769,18.427719,,,,,,
1478478748.03,1.068310,-1.274748,0.691625,0.207434,-0.644176,-0.117439,0.255680,0.956497,-0.140505,-0.026523,0.225312,0.009310,-1.847690,58.539780,18.473434,,,,,,
1478478748.04,1.054525,-1.271530,0.681416,0.420278,-0.120631,0.128219,0.256394,0.955553,-0.145535,-0.062867,0.225202,0.031262,-1.847690,58.539780,18.473434,,,,,,
1478478748.05,1.053467,-1.269811,0.675144,0.134845,0.558776,0.014513,0.257667,0.955045,-0.146618,-0.037971,0.105029,0.041302,-1.714890,58.643700,18.153870,,,,,,
1478478748.06,1.061210,-1.271022,0.676555,-0.139353,0.555464,-0.081374,0.257785,0.955403,-0.144054,0.101453,-0.012425,0.050960,-1.714890,58.643700,18.153870,,,,,,
1478478748.07,1.067305,-1.271994,0.679942,-0.104235,0.171783,-0.019199,0.257845,0.955690,-0.142032,0.046064,-0.148072,0.128818,-1.935277,58.670353,18.045277,,,,,,
1478478748.08,1.066445,-1.272032,0.680256,0.015127,-0.173972,0.005531,0.257691,0.955701,-0.142237,-0.407913,-0.042020,0.164453,-1.935277,58.670353,18.045277,,,,,,
1478478748.09,1.062806,-1.271703,0.679422,0.036483,-0.298871,0.020212,0.257446,0.955604,-0.143326,-0.208267,0.026589,-0.007156,-1.986692,58.643543,18.126644,,,,,,
1478478748.10,1.058713,-1.271349,0.679273,0.013409,-0.400480,0.027726,0.257153,0.955500,-0.144545,-0.043743,-0.063089,-0.131609,-1.986692,58.643543,18.126644,,,,,,
1478478748.11,1.055384,-1.271075,0.680777,-0.035237,-0.466475,0.046535,0.256897,0.955419,-0.145529,-0.035858,-0.077825,-0.068537,-1.836899,58.655025,18.105278,,,,,,
1478478748.12,1.051243,-1.270915,0.681898,-0.010911,-0.505702,0.023019,0.256426,0.955371,-0.146668,-0.045488,-0.018283,0.029114,-1.723794,58.651272,18.128557,,,,,,
1478478748.13,1.046430,-1.270530,0.682671,-0.001728,-0.539293,0.053153,0.256035,0.955258,-0.148084,-0.065071,0.107593,-0.025851,-1.611436,58.647995,18.149473,,,,,,
1478478748.14,1.041477,-1.269795,0.683859,0.011389,-0.588939,0.083615,0.255904,0.955040,-0.149705,-0.073943,0.111534,-0.020950,-1.611436,58.647995,18.149473,,,,,,
1478478748.16,1.036201,-1.268753,0.684632,0.041444,-0.557965,0.098244,0.255967,0.954731,-0.151560,-0.074006,0.111843,-0.019094,-1.611436,58.647995,18.149473,,,,,,
1478478748.17,1.031600,-1.267612,0.685283,0.026827,-0.477688,0.100357,0.256201,0.954391,-0.153295,-0.046301,-0.059142,-0.013819,-1.157531,58.658173,18.151217,,,,,,
1478478748.18,1.030019,-1.266868,0.688561,-0.063172,-0.441239,0.113159,0.256567,0.954168,-0.154065,-0.019949,-0.098638,-0.037066,-1.157531,58.658173,18.151217,,,,,,
1478478748.19,1.030177,-1.266355,0.693146,-0.091494,-0.383223,0.105639,0.257011,0.954015,-0.154276,-0.002205,-0.121343,-0.040578,-0.847032,58.659641,18.163609,,,,,,
1478478748.20,1.031245,-1.266484,0.698016,-0.137504,-0.332275,0.044018,0.257070,0.954053,-0.153939,0.007533,-0.099699,-0.029335,-0.847032,58.659641,18.163609,,,,,,
1478478748.21,1.031840,-1.266506,0.702628,-0.087842,-0.370667,0.085856,0.257144,0.954060,-0.153775,0.009244,0.057811,-0.049564,-0.600216,58.620255,18.300079,,,,,,
1478478748.22,1.029097,-1.265643,0.703865,0.037148,-0.363714,0.083864,0.257427,0.953801,-0.154904,-0.008739,0.081020,-0.076739,-0.600216,58.620255,18.300079,,,,,,
1478478748.23,1.025590,-1.264972,0.703812,0.024086,-0.321416,0.044941,0.257429,0.953599,-0.156138,-0.005628,0.018309,-0.055013,-0.363309,58.601398,18.366598,,,,,,
1478478748.24,1.022634,-1.264727,0.704453,-0.008565,-0.344963,0.027697,0.257166,0.953525,-0.157020,0.011343,0.000317,-0.063500,-0.363309,58.601398,18.366598,,,,,,
1478478748.25,1.019843,-1.264610,0.705425,-0.023640,-0.354905,0.022742,0.256821,0.953490,-0.157796,-0.005952,0.011033,-0.044261,-0.183074,58.607571,18.349564,,,,,,
1478478748.26,1.017612,-1.264567,0.706624,-0.026615,-0.305439,0.020637,0.256504,0.953477,-0.158390,-0.040790,-0.001283,0.008960,-0.183074,58.607571,18.349564,,,,,,
1478478748.27,1.016565,-1.264542,0.708403,-0.042293,-0.246267,0.031676,0.256358,0.953470,-0.158671,-0.006556,0.013083,-0.016805,-0.024823,58.598923,18.378067,,,,,,
1478478748.28,1.015952,-1.264467,0.710148,-0.036302,-0.210363,0.031157,0.256322,0.953447,-0.158866,0.011333,0.005904,-0.032922,-0.024823,58.598923,18.378067,,,,,,
1478478748.29,1.015062,-1.264304,0.711507,-0.021184,-0.205358,0.034970,0.256312,0.953398,-0.159176,0.009740,0.006975,-0.028751,0.105340,58.583237,18.427721,,,,,,
1478478748.30,1.013849,-1.264071,0.712368,-0.004913,-0.189153,0.031251,0.256308,0.953327,-0.159604,0.023752,0.005398,-0.042789,0.166392,58.578354,18.442791,,,,,,
1478478748.31,1.012449,-1.263785,0.712903,0.000039,-0.177992,0.031134,0.256315,0.953241,-0.160107,0.028231,-0.003564,-0.041172,0.223543,58.576485,18.448118,,,,,,
1478478748.32,1.011135,-1.263542,0.713282,0.002343,-0.154416,0.023411,0.256300,0.953168,-0.160567,0.029207,-0.005841,-0.028658,0.223543,58.576485,18.448118,,,,,,
1478478748.33,1.009979,-1.263304,0.713582,0.004660,-0.130923,0.025501,0.256307,0.953096,-0.160983,0.029200,-0.005769,-0.028241,0.223543,58.576485,18.448118,,,,,,
1478478748.34,1.007793,-1.254354,0.712634,0.003151,-0.104888,0.016461,0.263157,0.950349,-0.166090,0.016963,0.000488,-0.010882,0.365718,58.577995,18.441051,,,,,,
1478478748.35,1.007186,-1.254201,0.712952,-0.002113,-0.081430,0.017215,0.263180,0.950301,-0.166327,0.013081,0.006440,0.000800,0.365718,58.577995,18.441051,,,,,,
1478478748.37,1.006871,-1.254108,0.713356,-0.003571,-0.060381,0.013160,0.263202,0.950272,-0.166457,0.009900,0.008499,0.006362,0.851301,58.665138,18.145653,,,,,,
1478478748.38,1.006719,-1.254033,0.713755,-0.008727,-0.049259,0.010444,0.263236,0.950249,-0.166535,0.007165,0.010612,0.008378,0.851301,58.665138,18.145653,,,,,,
1478478748.39,1.006537,-1.254090,0.714163,-0.012477,-0.055361,-0.001771,0.263160,0.950266,-0.166554,-0.003868,0.013128,0.014408,0.889790,58.662682,18.151737,,,,,,
1478478748.40,1.006197,-1.254204,0.714478,-0.013665,-0.064005,-0.004095,0.263012,0.950302,-0.166585,-0.013394,0.019150,0.021429,0.889790,58.662682,18.151737,,,,,,
1478478748.41,1.005804,-1.254319,0.714718,-0.012437,-0.060277,-0.005367,0.262855,0.950338,-0.166631,-0.023643,0.020411,0.031468,0.910357,58.657589,18.167175,,,,,,
1478478748.42,1.005297,-1.254466,0.714816,-0.009963,-0.055263,-0.011548,0.262652,0.950383,-0.166689,-0.033343,0.027568,0.039156,0.910357,58.657589,18.167175,,,,,,
1478478748.43,1.004704,-1.254586,0.714817,-0.001117,-0.055242,-0.007741,0.262457,0.950421,-0.166783,-0.041342,0.033115,0.040166,0.922887,58.653584,18.179470,,,,,,
1478478748.44,1.004161,-1.254647,0.714741,0.000025,-0.041641,-0.006728,0.262318,0.950440,-0.166895,-0.045780,0.032608,0.041376,0.922887,58.653584,18.179470,,,,,,
1478478748.45,1.003597,-1.254658,0.714567,0.003763,-0.035466,-0.003099,0.262215,0.950443,-0.167037,-0.046349,0.027523,0.040816,0.932549,58.652328,18.183029,,,,,,
1478478748.46,1.003011,-1.254609,0.714363,0.007605,-0.040432,0.001945,0.262156,0.950428,-0.167216,-0.041605,0.015270,0.034892,0.937534,58.653084,18.180321,,,,,,
1478478748.47,1.006919,-1.268573,0.718575,0.007733,-0.054065,0.005845,0.251565,0.954677,-0.159080,-0.030602,0.013951,0.023903,0.945081,58.654526,18.175282,,,,,,
1478478748.48,1.006269,-1.268466,0.718558,0.004012,-0.061519,0.007144,0.251548,0.954645,-0.159299,-0.034492,0.018530,0.025678,0.945081,58.654526,18.175282,,,,,,
1478478748.49,1.005558,-1.268342,0.718545,0.007864,-0.067722,0.012210,0.251534,0.954608,-0.159541,-0.034478,0.018567,0.025920,0.945081,58.654526,18.175282,,,,,,
1478478748.50,1.004859,-1.268215,0.718593,0.005368,-0.071426,0.009784,0.251526,0.954570,-0.159782,-0.037353,0.019658,0.026039,0.332747,58.505924,18.669056,,,,,,
1478478748.51,1.003881,-1.268132,0.718361,0.010420,-0.072561,0.001290,0.251436,0.954546,-0.160070,-0.040636,0.016798,0.026739,0.332747,58.505924,18.669056,,,,,,
1478478748.52,1.004495,-1.279644,0.719665,0.007897,-0.073758,-0.004868,0.242244,0.957914,-0.154010,-0.034175,0.018115,0.024051,0.369439,58.508846,18.659210,,,,,,
1478478748.53,1.003420,-1.279675,0.719284,0.006542,-0.063850,-0.007508,0.242054,0.957923,-0.154254,-0.034962,0.020364,0.020755,0.369439,58.508846,18.659210,,,,,,
1478478748.54,1.002400,-1.279735,0.718893,0.005261,-0.062580,-0.012453,0.241847,0.957940,-0.154470,-0.034114,0.020515,0.015889,-0.165772,58.388653,19.034849,,,,,,
1478478748.55,1.001539,-1.279924,0.718552,-0.003712,-0.048975,-0.018945,0.241562,0.957994,-0.154581,-0.032959,0.015044,0.013879,-0.165772,58.388653,19.034849,,,,,,
1478478748.56,1.000959,-1.280149,0.718301,-0.007721,-0.025457,-0.024305,0.241291,0.958058,-0.154605,-0.030827,0.012202,0.015978,-0.162200,58.389412,19.032536,,,,,,
1478478748.58,1.000828,-1.280420,0.718362,-0.015374,-0.016866,-0.022108,0.241052,0.958136,-0.154496,-0.022134,0.012353,0.014283,-0.162200,58.389412,19.032536,,,,,,
1478478748.59,1.000638,-1.280758,0.718227,-0.014273,-0.000676,-0.034630,0.240750,0.958233,-0.154367,-0.014538,0.015751,0.012948,-0.178246,58.385113,19.045588,,,,,,
1478478748.60,1.000521,-1.281041,0.718078,-0.010499,0.002942,-0.021146,0.240504,0.958314,-0.154249,-0.007868,0.018737,0.006635,-0.178246,58.385113,19.045588,,,,,,
1478478748.61,1.000274,-1.281203,0.717734,0.008398,0.009196,-0.016073,0.240335,0.958360,-0.154224,-0.001489,0.015197,0.002827,-0.210630,58.379925,19.061153,,,,,,
1478478748.62,0.999536,-1.281173,0.716774,0.029790,0.019165,-0.009800,0.240245,0.958351,-0.154417,-0.000896,0.008354,0.001601,-0.223276,58.379799,19.061401,,,,,,
1478478748.63,0.990444,-1.278919,0.707743,0.039878,0.021677,-0.007243,0.240637,0.957705,-0.157779,0.000757,-0.003390,-0.008343,-0.233918,58.384472,19.046944,,,,,,
1478478748.64,0.983640,-1.277555,0.700914,0.052540,0.019227,-0.000887,0.240646,0.957312,-0.160137,-0.002532,-0.011954,-0.010029,-0.233918,58.384472,19.046944,,,,,,
1478478748.65,0.982139,-1.277073,0.699176,0.069012,0.015499,0.012905,0.240789,0.957172,-0.160754,-0.002675,-0.011814,-0.009412,-0.233918,58.384472,19.046944,,,,,,
1478478748.66,0.977415,-1.275644,0.694303,0.082890,0.019187,0.025308,0.241160,0.956758,-0.162654,-0.003397,-0.017000,-0.004842,-0.185324,58.506805,18.668356,,,,,,
1478478748.67,0.974009,-1.274708,0.690767,0.081737,0.007987,0.032839,0.241345,0.956485,-0.163977,-0.006894,-0.020755,0.000312,-0.185324,58.506805,18.668356,,,,,,
1478478748.68,0.972144,-1.274642,0.689312,0.068506,-0.065086,0.036334,0.241091,0.956466,-0.164463,-0.010455,-0.019225,0.007313,-0.148884,58.569077,18.472385,,,,,,
1478478748.69,0.970909,-1.274538,0.688833,0.071149,-0.071649,0.083087,0.240970,0.956436,-0.164817,-0.011951,-0.014572,0.009558,-0.148884,58.569077,18.472385,,,,,,
1478478748.70,0.971307,-1.274321,0.689926,0.048383,-0.062284,0.129204,0.241207,0.956372,-0.164838,-0.012722,-0.004727,0.009809,-0.136207,58.579426,18.439629,,,,,,
1478478748.71,0.972492,-1.273162,0.691605,0.012701,-0.030181,0.109751,0.242318,0.956033,-0.165176,-0.021752,0.021064,0.002838,-0.136207,58.579426,18.439629,,,,,,
1478478748.72,0.973560,-1.272892,0.692948,-0.024146,-0.019682,0.012152,0.242708,0.955954,-0.165062,-0.026048,-0.019751,0.012414,-0.023129,58.581509,18.433498,,,,,,
1478478748.73,0.972947,-1.273506,0.692545,-0.025435,-0.027672,-0.067452,0.242121,0.956134,-0.164881,-0.043177,-0.053988,0.033487,-0.023129,58.581509,18.433498,,,,,,
1478478748.74,0.971903,-1.274143,0.692179,-0.023665,-0.081012,-0.046902,0.241446,0.956320,-0.164790,-0.064947,-0.038779,0.010188,-0.022554,58.573730,18.458195,,,,,,
1478478748.75,0.970629,-1.274278,0.691684,0.012891,-0.067503,-0.009809,0.241129,0.956360,-0.165025,-0.037333,0.003784,-0.026916,-0.022554,58.573730,18.458195,,,,,,
1478478748.76,0.969291,-1.274014,0.690625,0.045322,-0.019241,0.009468,0.241116,0.956282,-0.165490,0.043750,0.035844,-0.067481,-0.040586,58.569511,18.471546,,,,,,
1478478748.78,0.967421,-1.273455,0.688730,0.078023,-0.003001,0.013344,0.241247,0.956119,-0.166244,0.078578,0.095654,-0.123566,-0.032079,58.576981,18.447872,,,,,,
1478478748.79,0.965512,-1.272917,0.686842,0.066741,-0.012941,0.010896,0.241351,0.955961,-0.166996,0.078473,0.095812,-0.122814,-0.032079,58.576981,18.447872,,,,,,
1478478748.80,0.964441,-1.272580,0.685886,0.027597,-0.014419,0.011583,0.241437,0.955862,-0.167439,-0.011701,-0.036306,-0.013973,-0.013046,58.605236,18.357937,,,,,,
1478478748.81,0.965156,-1.272532,0.686591,-0.024407,0.009958,0.016553,0.241595,0.955848,-0.167292,-0.017122,-0.046592,0.021784,-0.003284,58.612999,18.333153,,,,,,
1478478748.82,0.966858,-1.272678,0.688005,-0.044915,0.042037,0.010809,0.241764,0.955891,-0.166801,-0.017292,-0.046635,0.021293,-0.003284,58.612999,18.333153,,,,,,
1478478748.83,0.969020,-1.272942,0.689620,-0.052674,0.060626,0.000572,0.241916,0.955968,-0.166135,-0.012454,-0.036626,0.030119,-0.003284,58.612999,18.333153,,,,,,
1478478748.84,0.971061,-1.273306,0.691245,-0.056257,0.037147,-0.003990,0.241968,0.956075,-0.165445,-0.003579,-0.022558,0.010690,-0.002784,58.592644,18.398098,,,,,,
1478478748.85,0.972555,-1.273689,0.692916,-0.059454,-0.028425,-0.002929,0.241912,0.956187,-0.164877,0.000337,-0.000087,-0.009806,-0.002784,58.592644,18.398098,,,,,,
1478478748.86,0.973512,-1.274090,0.694794,-0.065186,-0.092784,-0.000699,0.241752,0.956305,-0.164430,0.006096,0.024561,-0.021728,-0.014027,58.570171,18.469505,,,,,,
1478478748.87,0.974309,-1.274473,0.696763,-0.066356,-0.102707,0.001905,0.241581,0.956416,-0.164031,0.015087,0.036092,-0.018342,-0.014027,58.570171,18.469505,,,,,,
1478478748.88,0.975145,-1.274763,0.698623,-0.056424,-0.082900,0.006619,0.241488,0.956501,-0.163673,0.018049,0.028637,-0.013313,0.020719,58.544800,18.549767,,,,,,
1478478748.89,0.976268,-1.274981,0.700313,-0.046771,-0.032175,0.010808,0.241499,0.956565,-0.163286,0.018343,0.014596,-0.001784,0.020719,58.544800,18.549767,,,,,,
1478478748.90,0.977500,-1.275075,0.701540,-0.029523,0.016164,0.010241,0.241625,0.956592,-0.162937,0.008360,0.004620,0.012272,0.056810,58.523560,18.616589,,,,,,
1478478748.91,0.978502,-1.275076,0.702198,-0.012052,0.039767,0.010095,0.241788,0.956592,-0.162695,0.000598,-0.004246,0.011648,0.056810,58.523560,18.616589,,,,,,
1478478748.92,0.979198,-1.274994,0.702393,0.002994,0.052224,0.010102,0.241966,0.956569,-0.162570,-0.001732,-0.012950,0.014133,0.062129,58.514069,18.646378,,,,,,
1478478748.93,0.979732,-1.274918,0.702383,0.005523,0.051054,0.004026,0.242113,0.956546,-0.162482,-0.001512,-0.019184,0.017065,0.058468,58.514038,18.646492,,,,,,
1478478748.94,0.980308,-1.274845,0.702473,-0.001992,0.044774,0.010156,0.242264,0.956525,-0.162381,-0.000489,-0.018949,0.016995,0.058468,58.514038,18.646492,,,,,,
1478478748.95,0.981215,-1.274773,0.702997,-0.009487,0.036040,0.013874,0.242469,0.956504,-0.162200,0.003564,-0.003806,0.021163,0.047163,58.515217,18.642834,,,,,,
1478478748.96,0.982487,-1.274683,0.703993,-0.018250,0.028494,0.022460,0.242746,0.956478,-0.161939,0.004583,-0.002209,0.018842,0.048133,58.513592,18.647926,,,,,,
1478478748.97,0.983848,-1.274557,0.705124,-0.018218,0.025958,0.029862,0.243067,0.956441,-0.161675,0.001867,-0.004018,0.016442,0.048133,58.513592,18.647926,,,,,,
1478478748.99,0.985014,-1.274291,0.706106,-0.004268,0.021021,0.038732,0.243468,0.956363,-0.161532,0.001466,-0.003940,0.016299,0.048133,58.513592,18.647926,,,,,,
1478478749.00,0.988310,-1.274372,0.709227,0.004730,0.006086,0.056284,0.243934,0.956387,-0.160686,-0.002662,-0.005230,0.007671,0.085617,58.504417,18.676546,,,,,,
1478478749.01,0.989053,-1.273780,0.710052,0.016249,-0.009956,0.060400,0.244526,0.956214,-0.160816,-0.003880,-0.004767,-0.001721,0.085617,58.504417,18.676546,,,,,,
1478478749.02,0.989238,-1.273044,0.710565,0.024080,-0.037162,0.065878,0.245144,0.955998,-0.161157,-0.007733,-0.006825,-0.011755,0.142793,58.491558,18.716431,,,,,,
1478478749.03,0.982175,-1.272024,0.704433,0.026865,-0.065593,0.066397,0.244811,0.955699,-0.163426,-0.008757,-0.002329,-0.014904,0.142793,58.491558,18.716431,,,,,,
1478478749.04,0.982002,-1.271385,0.705103,0.019432,-0.082880,0.057997,0.245290,0.955510,-0.163807,-0.013555,0.007258,-0.016964,0.203242,58.535187,18.578968,,,,,,
1478478749.05,0.981475,-1.270957,0.705509,0.013123,-0.086451,0.037116,0.245543,0.955384,-0.164164,-0.014891,0.010162,-0.015707,0.203242,58.535187,18.578968,,,,,,
1478478749.06,0.980897,-1.270644,0.705821,0.006737,-0.080211,0.025880,0.245697,0.955291,-0.164472,-0.015137,0.015152,-0.013110,0.297579,58.541027,18.559292,,,,,,
1478478749.07,0.980599,-1.270510,0.706222,-0.004838,-0.059149,0.013093,0.245755,0.955252,-0.164617,-0.014996,0.016382,-0.005946,0.297579,58.541027,18.559292,,,,,,
1478478749.08,0.980823,-1.270621,0.706835,-0.025359,-0.026977,-0.003690,0.245703,0.955285,-0.164503,-0.016776,0.009330,0.001005,0.355104,58.542240,18.554453,,,,,,
1478478749.09,0.981575,-1.270995,0.707755,-0.045753,-0.008441,-0.016562,0.245530,0.955395,-0.164119,-0.017365,0.010929,0.011577,0.362309,58.538288,18.566774,,,,,,
1478478749.10,0.982630,-1.271595,0.708850,-0.059774,0.002774,-0.036577,0.245226,0.955572,-0.163542,-0.009356,0.020319,0.017012,0.362309,58.538288,18.566774,,,,,,
1478478749.11,0.984035,-1.272427,0.710160,-0.078892,0.020071,-0.048183,0.244793,0.955817,-0.162757,-0.004101,0.030374,0.014991,0.336460,58.519196,18.627346,,,,,,
1478478749.12,0.985807,-1.273346,0.711746,-0.086538,0.027446,-0.048418,0.244349,0.956087,-0.161838,0.002187,0.033949,0.007587,0.336460,58.519196,18.627346,,,,,,
1478478749.13,0.994370,-1.273927,0.719667,-0.089236,0.046003,-0.051222,0.245260,0.956257,-0.159437,0.012583,0.016903,0.000104,0.271067,58.488152,18.725658,,,,,,
1478478749.14,0.997832,-1.274137,0.722535,-0.084311,0.059669,-0.055060,0.245642,0.956318,-0.158478,0.013712,0.019008,-0.004333,0.298439,58.445499,18.857946,,,,,,
1478478749.15,0.999977,-1.275152,0.724019,-0.086956,0.072063,-0.060213,0.245164,0.956615,-0.157426,0.014190,0.018712,-0.005385,0.298439,58.445499,18.857946,,,,,,
1478478749.16,1.002309,-1.275309,0.725585,-0.080703,0.079500,-0.057795,0.245404,0.956660,-0.156773,0.013523,0.018926,-0.008922,0.298439,58.445499,18.857946,,,,,,
1478478749.17,1.002780,-1.275033,0.725344,-0.087039,0.081926,-0.056700,0.245700,0.956580,-0.156800,0.012371,0.008691,-0.015838,0.242142,58.403915,18.987141,,,,,,
1478478749.19,1.002346,-1.274763,0.724222,-0.065542,0.080743,-0.047784,0.245850,0.956501,-0.157045,0.008926,0.003551,-0.016936,0.242142,58.403915,18.987141,,,,,,
1478478749.20,1.001929,-1.274426,0.723100,-0.057944,0.080673,-0.034181,0.246056,0.956403,-0.157321,0.008384,0.002276,-0.016018,0.231078,58.415787,18.950733,,,,,,
1478478749.21,1.003606,-1.274883,0.723981,-0.038970,0.079444,-0.021622,0.245951,0.956536,-0.156673,0.004049,-0.003228,-0.015812,0.231078,58.415787,18.950733,,,,,,
1478478749.22,1.004910,-1.275237,0.724443,-0.025109,0.083237,-0.021486,0.245869,0.956639,-0.156171,-0.001469,-0.006581,-0.009051,0.194703,58.415718,18.951351,,,,,,
1478478749.23,1.005908,-1.275461,0.724544,-0.012506,0.086990,-0.017688,0.245844,0.956704,-0.155811,-0.000285,-0.015710,-0.003857,0.194703,58.415718,18.951351,,,,,,
1478478749.24,1.006757,-1.275635,0.724510,-0.004899,0.084520,-0.012631,0.245836,0.956755,-0.155513,-0.001741,-0.020903,-0.001072,0.137942,58.407284,18.977829,,,,,,
1478478749.25,1.007596,-1.275767,0.724458,-0.004896,0.084499,-0.010177,0.245859,0.956794,-0.155239,-0.002206,-0.017295,0.000591,0.137942,58.407284,18.977829,,,,,,
1478478749.26,1.008593,-1.275901,0.724620,-0.012425,0.079476,-0.006522,0.245906,0.956832,-0.154926,-0.003108,-0.011856,0.001804,0.088427,58.404602,18.986364,,,,,,
1478478749.27,1.009862,-1.276337,0.725172,-0.021156,0.068230,0.000900,0.245749,0.956959,-0.154392,-0.003836,-0.002293,0.002063,0.067309,58.402508,18.992901,,,,,,
1478478749.28,1.011355,-1.276473,0.726023,-0.027424,0.063225,0.003347,0.245868,0.956999,-0.153956,-0.003955,-0.002333,0.001627,0.067309,58.402508,18.992901,,,,,,
1478478749.29,1.014653,-1.277599,0.728623,-0.028682,0.062012,-0.000331,0.245459,0.957325,-0.152575,-0.005271,0.008099,0.010089,0.024674,58.390167,19.030907,,,,,,
1478478749.30,1.017517,-1.278742,0.730847,-0.023582,0.055910,-0.006288,0.244964,0.957654,-0.151296,-0.005432,0.011416,0.010320,0.024674,58.390167,19.030907,,,,,,
1478478749.31,1.019654,-1.280201,0.732408,-0.024801,0.050956,-0.006223,0.244096,0.958073,-0.150041,-0.010408,0.013393,0.010697,-0.074296,58.344643,19.169893,,,,,,
1478478749.32,1.020190,-1.281571,0.732471,-0.026044,0.048485,-0.007427,0.243058,0.958465,-0.149223,-0.014649,0.009507,0.005623,-0.074296,58.344643,19.169893,,,,,,
1478478749.33,1.020230,-1.283038,0.732168,-0.032261,0.037327,-0.008557,0.241865,0.958882,-0.148477,-0.018019,0.008464,0.004434,-0.222012,58.308186,19.279362,,,,,,
1478478749.34,1.019116,-1.284230,0.730902,-0.035932,0.024895,-0.003496,0.240726,0.959220,-0.148147,-0.018924,0.005669,-0.002152,-0.222012,58.308186,19.279362,,,,,,
1478478749.35,1.018809,-1.285472,0.730548,-0.042123,0.011243,-0.002130,0.239666,0.959571,-0.147597,-0.019390,0.002939,0.001723,-0.376026,58.287872,19.338303,,,,,,
1478478749.36,1.019429,-1.286506,0.731175,-0.047158,0.008771,-0.005842,0.238912,0.959861,-0.146928,-0.013662,0.004281,0.003084,-0.376026,58.287872,19.338303,,,,,,
1478478749.37,1.021003,-1.286837,0.732720,-0.052222,0.009978,-0.005935,0.238872,0.959954,-0.146386,-0.008998,0.008857,0.008278,-0.487625,58.262684,19.411591,,,,,,
1478478749.38,1.022637,-1.287192,0.734272,-0.053543,0.016165,-0.007285,0.238820,0.960053,-0.145818,-0.003942,0.012557,0.007604,-0.487625,58.262684,19.411591,,,,,,
1478478749.40,1.024403,-1.287591,0.735901,-0.057383,0.021131,-0.012330,0.238750,0.960165,-0.145197,-0.001583,0.014490,0.007974,-0.499882,58.241264,19.475443,,,,,,
1478478749.41,1.026295,-1.288060,0.737632,-0.063704,0.021125,-0.016101,0.238640,0.960295,-0.144512,-0.000160,0.013551,0.008312,-0.499882,58.241264,19.475443,,,,,,
1478478749.42,1.028160,-1.288559,0.739330,-0.064970,0.021138,-0.018572,0.238498,0.960435,-0.143819,-0.001514,0.012954,0.008321,-0.523035,58.216690,19.548172,,,,,,
1478478749.43,1.029628,-1.289590,0.740641,-0.070049,0.023612,-0.022368,0.237860,0.960721,-0.142958,-0.004187,0.014682,-0.000459,-0.538247,58.203617,19.586649,,,,,,
1478478749.44,1.031964,-1.290334,0.742773,-0.087781,0.027312,-0.033724,0.237580,0.960928,-0.142035,-0.003907,0.014475,-0.001382,-0.538247,58.203617,19.586649,,,,,,
1478478749.45,1.034300,-1.291106,0.744857,-0.081522,0.033533,-0.033739,0.237273,0.961141,-0.141101,-0.003890,0.011760,-0.000561,-0.607935,58.168987,19.687223,,,,,,
1478478749.46,1.038131,-1.292252,0.748319,-0.086623,0.038471,-0.036349,0.236863,0.961457,-0.139631,0.002899,0.006103,0.004286,-0.635882,58.151215,19.738777,,,,,,
1478478749.48,1.043755,-1.293655,0.753241,-0.065134,0.038494,-0.023775,0.236479,0.961842,-0.137618,0.003573,0.002834,0.005325,-0.635882,58.151215,19.738777,,,,,,
1478478749.47,1.041766,-1.293063,0.751579,-0.075244,0.037301,-0.036165,0.236696,0.961679,-0.138376,0.003356,0.002997,0.006082,-0.635882,58.151215,19.738777,,,,,,
1478478749.49,1.046566,-1.294281,0.755686,-0.056262,0.036021,-0.017473,0.236343,0.962013,-0.136652,0.000885,0.001488,0.004785,-0.723344,58.085491,19.928379,,,,,,
1478478749.50,1.048165,-1.294820,0.756962,-0.049933,0.034811,-0.016135,0.236112,0.962160,-0.136015,-0.002271,0.000517,0.000120,-0.723344,58.085491,19.928379,,,,,,
1478478749.51,1.049129,-1.295260,0.757666,-0.042314,0.031104,-0.011057,0.235876,0.962279,-0.135576,-0.003530,-0.001052,-0.001951,-0.768875,58.055897,20.012720,,,,,,
1478478749.52,1.050261,-1.295511,0.758551,-0.046079,0.028597,-0.009843,0.235820,0.962348,-0.135189,-0.001536,-0.007743,-0.002674,-0.768875,58.055897,20.012720,,,,,,
1478478749.53,1.051263,-1.295691,0.759377,-0.039706,0.022440,-0.008420,0.235804,0.962397,-0.134866,-0.000254,-0.005503,-0.003592,-0.802515,58.041191,20.054020,,,,,,
1478478749.54,1.052644,-1.295964,0.760573,-0.040932,0.018701,-0.005922,0.235762,0.962471,-0.134411,0.000627,-0.002311,-0.003346,-0.802515,58.041191,20.054020,,,,,,
1478478749.55,1.054086,-1.296237,0.761881,-0.042181,0.017436,-0.003466,0.235727,0.962545,-0.133941,0.000921,-0.001317,0.002196,-0.818294,58.027008,20.094395,,,,,,
1478478749.56,1.055547,-1.296499,0.763214,-0.042192,0.018673,-0.003487,0.235703,0.962616,-0.133472,0.000503,0.002869,0.004291,-0.818294,58.027008,20.094395,,,,,,
1478478749.57,1.056885,-1.296710,0.764373,-0.034636,0.021192,-0.003420,0.235705,0.962673,-0.133056,0.001982,0.003376,0.008133,-0.832010,58.009071,20.145550,,,,,,
1478478749.58,1.058203,-1.296974,0.765484,-0.034674,0.024933,-0.007163,0.235659,0.962744,-0.132621,-0.005160,0.003427,0.011222,-0.838220,58.001438,20.167253,,,,,,
1478478749.60,1.059633,-1.297256,0.766724,-0.042219,0.021178,-0.007209,0.235611,0.962821,-0.132151,-0.007187,0.005273,0.009379,-0.838220,58.001438,20.167253,,,,,,
1478478749.61,1.061039,-1.297538,0.767967,-0.044736,0.019937,-0.008450,0.235560,0.962897,-0.131687,-0.005930,0.007883,0.007710,-0.857527,57.984711,20.214489,,,,,,
1478478749.62,1.062444,-1.297846,0.769241,-0.043430,0.015007,-0.009575,0.235486,0.962980,-0.131212,-0.005490,0.005297,0.009615,-0.857527,57.984711,20.214489,,,,,,
1478478749.63,1.066373,-1.299679,0.773032,-0.037026,0.005150,-0.009318,0.234453,0.963472,-0.129432,-0.008089,0.007719,0.008888,-0.875954,57.966732,20.265198,,,,,,
1478478749.64,1.068383,-1.300767,0.775046,-0.033177,-0.001042,-0.005480,0.233795,0.963763,-0.128456,-0.009948,0.003431,0.010628,-0.945903,57.929554,20.368107,,,,,,
1478478749.65,1.069200,-1.300947,0.775993,-0.030582,-0.008458,-0.004091,0.233747,0.963811,-0.128182,-0.009901,0.003383,0.010353,-0.945903,57.929554,20.368107,,,,,,
1478478749.66,1.070259,-1.301876,0.777247,-0.027960,-0.019543,-0.007546,0.233097,0.964058,-0.127504,-0.010487,0.001381,0.007860,-0.945903,57.929554,20.368107,,,,,,
1478478749.67,1.070434,-1.302503,0.777753,-0.021541,-0.030658,-0.004814,0.232589,0.964225,-0.127173,-0.007567,0.003610,0.002677,-1.022443,57.886452,20.486595,,,,,,
1478478749.68,1.070254,-1.302893,0.778023,-0.026489,-0.041840,-0.002244,0.232236,0.964328,-0.127035,-0.004865,0.002728,-0.000849,-1.022443,57.886452,20.486595,,,,,,
1478478749.69,1.070214,-1.303008,0.778522,-0.023918,-0.046772,-0.002124,0.232134,0.964358,-0.126991,-0.000384,0.000485,-0.001900,-1.052914,57.871918,20.526085,,,,,,
1478478749.70,1.070390,-1.303061,0.779235,-0.017591,-0.046807,0.006553,0.232111,0.964373,-0.126925,0.002630,-0.001421,-0.003476,-1.052914,57.871918,20.526085,,,,,,
1478478749.71,1.070606,-1.303116,0.779949,-0.020134,-0.045554,0.002816,0.232092,0.964387,-0.126850,0.001093,-0.003999,-0.002682,-1.031334,57.864487,20.548120,,,,,,
1478478749.72,1.070892,-1.303257,0.780687,-0.021459,-0.039336,-0.002214,0.232009,0.964424,-0.126719,0.002015,-0.000679,-0.001013,-1.019156,57.860592,20.559700,,,,,,
1478478749.73,1.071270,-1.303416,0.781502,-0.026515,-0.039345,-0.004740,0.231922,0.964466,-0.126557,0.006924,0.003185,0.000687,-1.019156,57.860592,20.559700,,,,,,
1478478749.74,1.071664,-1.303532,0.782211,-0.019064,-0.024501,0.000023,0.231874,0.964497,-0.126412,0.007369,0.002681,0.000023,-1.005855,57.850147,20.589718,,,,,,
1478478749.75,1.071840,-1.303636,0.782633,-0.011523,-0.020715,-0.003611,0.231808,0.964525,-0.126323,0.005726,0.003417,-0.000279,-1.005855,57.850147,20.589718,,,,,,
1478478749.76,1.072053,-1.303732,0.783100,-0.015268,-0.025684,-0.003582,0.231753,0.964550,-0.126230,0.005444,0.002751,-0.002494,-0.998043,57.842525,20.611506,,,,,,
1478478749.77,1.072106,-1.303843,0.783421,-0.011493,-0.024404,-0.006002,0.231666,0.964579,-0.126166,0.004113,0.001180,-0.004831,-0.998043,57.842525,20.611506,,,,,,
1478478749.78,1.072221,-1.303961,0.783787,-0.014029,-0.023193,-0.004832,0.231581,0.964610,-0.126085,0.002794,0.001393,-0.004683,-0.992592,57.836636,20.628281,,,,,,
1478478749.79,1.072347,-1.304041,0.784089,-0.010303,-0.015770,-0.002451,0.231529,0.964631,-0.126019,0.003166,0.002059,0.000531,-0.992592,57.836636,20.628281,,,,,,
1478478749.81,1.073802,-1.303657,0.785665,-0.012843,-0.014528,-0.004961,0.232038,0.964530,-0.125859,0.005084,0.001000,0.000889,-0.989452,57.831406,20.643097,,,,,,
1478478749.82,1.073959,-1.303735,0.785946,-0.009062,-0.013290,-0.002475,0.231992,0.964550,-0.125787,0.005130,0.000980,0.000817,-0.989452,57.831406,20.643097,,,,,,
1478478749.83,1.074884,-1.303581,0.787045,-0.002679,-0.019509,0.006308,0.232238,0.964510,-0.125642,0.003266,-0.000368,0.002413,-0.956667,57.826027,20.659702,,,,,,
1478478749.84,1.075205,-1.303288,0.787567,-0.000118,-0.023215,0.007634,0.232527,0.964432,-0.125702,0.003511,-0.000825,-0.000030,-0.956667,57.826027,20.659702,,,,,,
1478478749.85,1.075069,-1.302880,0.787703,0.003694,-0.025666,0.007731,0.232856,0.964324,-0.125921,0.003563,-0.005477,-0.001200,-0.915583,57.823193,20.669483,,,,,,
1478478749.86,1.073901,-1.302344,0.786829,0.008772,-0.028121,0.009073,0.233163,0.964183,-0.126439,0.003546,-0.005091,-0.005778,-0.915583,57.823193,20.669483,,,,,,
1478478749.87,1.073482,-1.302216,0.786695,0.007534,-0.030622,0.011550,0.233218,0.964149,-0.126596,0.001752,-0.002067,-0.006553,-0.860750,57.836685,20.634077,,,,,,
1478478749.88,1.073263,-1.302113,0.786714,0.003650,-0.020719,0.007647,0.233279,0.964121,-0.126695,0.004377,-0.000346,-0.013503,-0.849277,57.838661,20.628994,,,,,,
1478478749.89,1.073068,-1.302056,0.786750,-0.000165,-0.018248,0.005098,0.233302,0.964106,-0.126766,0.005193,0.001958,-0.009602,-0.849277,57.838661,20.628994,,,,,,
1478478749.90,1.072965,-1.302056,0.786815,-0.002732,-0.014500,-0.001135,0.233289,0.964106,-0.126790,0.005542,0.001089,-0.005458,-0.831046,57.840103,20.625700,,,,,,
1478478749.91,1.073076,-1.302104,0.787041,-0.009094,-0.009580,-0.002536,0.233262,0.964119,-0.126742,0.006331,0.002251,-0.006681,-0.831046,57.840103,20.625700,,,,,,
1478478749.92,1.073365,-1.302137,0.787413,-0.010385,-0.005919,0.002289,0.233271,0.964128,-0.126659,0.008871,0.005004,-0.006718,-0.825743,57.838223,20.631184,,,,,,
1478478749.93,1.073519,-1.302218,0.787603,-0.009142,-0.004612,-0.005074,0.233222,0.964149,-0.126586,0.005105,0.006050,-0.005112,-0.825743,57.838223,20.631184,,,,,,
1478478749.94,1.073767,-1.302298,0.787937,-0.009117,-0.007106,-0.002579,0.233186,0.964170,-0.126492,0.003707,0.006014,-0.007984,-0.825418,57.834370,20.641991,,,,,,
1478478749.95,1.073662,-1.302368,0.787918,-0.001532,-0.008267,-0.006129,0.233112,0.964189,-0.126484,0.004147,0.006438,-0.008297,-0.825418,57.834370,20.641991,,,,,,
1478478749.96,1.070081,-1.301982,0.784603,-0.015392,-0.012050,-0.007492,0.232985,0.964086,-0.127497,0.000719,0.002939,-0.008322,-0.827398,57.831299,20.650517,,,,,,
1478478749.97,1.068871,-1.301599,0.783524,-0.010378,-0.008269,-0.012389,0.233154,0.963985,-0.127956,0.004929,0.001958,-0.008305,-0.824202,57.850975,20.595457,,,,,,
1478478749.98,1.069170,-1.301797,0.783844,-0.018034,0.000333,-0.011418,0.233025,0.964037,-0.127795,0.005058,0.001905,-0.008466,-0.824202,57.850975,20.595457,,,,,,
1478478749.99,1.068171,-1.301352,0.782881,-0.016791,0.002804,-0.010215,0.233273,0.963919,-0.128234,0.006336,0.001657,-0.009446,-0.824202,57.850975,20.595457,,,,,,
1478478750.00,1.067419,-1.301060,0.782086,-0.019397,0.011467,-0.012852,0.233423,0.963841,-0.128545,0.005285,0.002605,-0.008860,-0.799855,57.865738,20.554920,,,,,,
1478478750.02,1.067641,-1.300815,0.782298,-0.024379,0.003996,-0.010344,0.233659,0.963776,-0.128607,0.007018,0.002502,-0.005761,-0.799855,57.865738,20.554920,,,,,,
1478478750.03,1.067210,-1.300553,0.781864,-0.020616,0.006523,-0.014011,0.233824,0.963706,-0.128830,0.006380,0.002481,-0.008667,-0.777559,57.874168,20.532019,,,,,,
1478478750.04,1.067768,-1.300752,0.782379,-0.019337,0.005262,-0.010292,0.233728,0.963759,-0.128607,0.007834,0.002214,-0.005930,-0.777559,57.874168,20.532019,,,,,,
1478478750.05,1.068147,-1.300946,0.782708,-0.014286,0.005302,-0.011447,0.233613,0.963811,-0.128428,0.006591,0.000453,-0.005834,-0.774831,57.874447,20.531334,,,,,,
1478478750.07,1.067541,-1.300706,0.782142,-0.017993,-0.003399,-0.008900,0.233738,0.963747,-0.128681,0.005505,-0.001787,-0.010586,-0.783467,57.870853,20.541134,,,,,,
1478478750.06,1.067109,-1.300532,0.781691,-0.015534,0.004037,-0.008990,0.233829,0.963700,-0.128863,0.005414,-0.001740,-0.010404,-0.783467,57.870853,20.541134,,,,,,
1478478750.08,1.067821,-1.300856,0.782443,-0.010433,-0.000901,-0.006380,0.233647,0.963787,-0.128546,0.005001,0.000828,-0.013147,-0.774238,57.876057,20.526827,,,,,,
1478478750.09,1.068322,-1.300982,0.782967,-0.016733,-0.002206,-0.002770,0.233605,0.963820,-0.128371,0.005424,0.000810,-0.015245,-0.774238,57.876057,20.526827,,,,,,
1478478750.10,1.068657,-1.301098,0.783338,-0.012958,-0.000926,-0.005190,0.233550,0.963851,-0.128238,0.008058,0.001237,-0.018399,-0.781827,57.869263,20.545681,,,,,,
1478478750.11,1.068717,-1.301198,0.783403,-0.004121,-0.000843,-0.008743,0.233473,0.963878,-0.128178,0.009325,-0.000682,-0.013485,-0.781827,57.869263,20.545681,,,,,,
1478478750.12,1.069070,-1.300875,0.783725,-0.001613,0.001624,-0.006295,0.233791,0.963792,-0.128245,0.007145,0.002135,-0.002217,-0.789049,57.864925,20.557621,,,,,,
1478478750.13,1.068182,-1.300664,0.782790,0.005904,0.009058,-0.002633,0.233856,0.963735,-0.128551,0.001603,-0.000036,-0.004856,-0.789049,57.864925,20.557621,,,,,,
1478478750.14,1.066763,-1.300436,0.781294,0.010941,0.010356,-0.006261,0.233865,0.963675,-0.128988,0.001517,0.000650,-0.006617,-0.767615,57.873451,20.534405,,,,,,
1478478750.15,1.065361,-1.300280,0.779886,0.005970,0.001658,-0.004960,0.233816,0.963633,-0.129389,-0.000188,-0.001536,-0.006246,-0.767615,57.873451,20.534405,,,,,,
1478478750.16,1.063925,-1.300330,0.778500,0.007267,-0.002045,-0.004879,0.233587,0.963647,-0.129701,-0.004049,-0.002297,-0.004195,-0.769430,57.891148,20.484402,,,,,,
1478478750.17,1.062366,-1.300338,0.777063,0.016216,-0.013165,0.000343,0.233378,0.963649,-0.130062,-0.004329,-0.002848,-0.003224,-0.769430,57.891148,20.484402,,,,,,
1478478750.18,1.060469,-1.300263,0.775323,0.036443,-0.014314,0.004334,0.233194,0.963629,-0.130539,-0.005212,-0.002935,-0.001831,-0.787924,57.903748,20.448059,,,,,,
1478478750.19,1.058930,-1.300360,0.774049,0.036626,-0.035298,-0.000216,0.232911,0.963655,-0.130852,-0.006349,-0.002076,0.003609,-0.787924,57.903748,20.448059,,,,,,
1478478750.20,1.056908,-1.300124,0.772544,0.044430,-0.059999,0.001540,0.232845,0.963591,-0.131435,-0.010890,-0.001509,0.008098,-0.800980,57.917553,20.408411,,,,,,
1478478750.22,1.054072,-1.300507,0.770437,0.053441,-0.078509,0.003208,0.232150,0.963694,-0.131912,-0.016360,-0.007563,0.006638,-0.788806,57.927071,20.381845,,,,,,
1478478750.23,1.051319,-1.300127,0.768564,0.058647,-0.094609,0.009687,0.232103,0.963592,-0.132733,-0.016314,-0.007461,0.007458,-0.788806,57.927071,20.381845,,,,,,
1478478750.24,1.048470,-1.299680,0.766775,0.062592,-0.110727,0.017375,0.232098,0.963473,-0.133608,-0.018185,-0.011034,0.006213,-0.783711,57.945454,20.329727,,,,,,
1478478750.25,1.045273,-1.299162,0.764657,0.075199,-0.108169,0.016287,0.232101,0.963334,-0.134600,-0.019012,-0.006180,0.001604,-0.783711,57.945454,20.329727,,,,,,
1478478750.26,1.041892,-1.298520,0.762301,0.084016,-0.104458,0.022484,0.232179,0.963161,-0.135696,-0.009751,-0.001568,-0.007630,-0.719215,57.973858,20.250967,,,,,,
1478478750.27,1.038236,-1.297807,0.759624,0.095363,-0.101928,0.023832,0.232273,0.962969,-0.136893,-0.003803,-0.001788,-0.012964,-0.719215,57.973858,20.250967,,,,,,
1478478750.28,1.034722,-1.297074,0.757034,0.091508,-0.094540,0.024878,0.232397,0.962771,-0.138069,0.000879,-0.003955,-0.014962,-0.646767,58.011616,20.145023,,,,,,
1478478750.29,1.034883,-1.294164,0.757818,0.078674,-0.072332,0.021869,0.234828,0.961981,-0.139461,0.026021,-0.000707,-0.001454,-0.610291,58.031410,20.089067,,,,,,
1478478750.30,1.036729,-1.292639,0.759975,0.063247,-0.042738,0.021149,0.236347,0.961563,-0.139774,0.030010,0.007065,0.008869,-0.610291,58.031410,20.089067,,,,,,
1478478750.31,1.035403,-1.292258,0.758807,0.038959,-0.011909,0.014146,0.236476,0.961458,-0.140274,0.029881,0.007170,0.009369,-0.610291,58.031410,20.089067,,,,,,
1478478750.32,1.040386,-1.291682,0.763543,0.007205,0.006499,0.008473,0.237650,0.961300,-0.139374,0.026617,0.015965,0.019654,-0.335038,58.074390,19.970993,,,,,,
1478478750.33,1.046637,-1.291685,0.769359,-0.001808,0.023835,-0.000534,0.238514,0.961301,-0.137884,0.022991,0.020465,0.028723,-0.335038,58.074390,19.970993,,,,,,
1478478750.34,1.053558,-1.292253,0.775742,-0.010719,0.030030,-0.008125,0.238988,0.961457,-0.135960,0.017161,0.026443,0.036366,-0.242994,58.030556,20.099342,,,,,,
1478478750.35,1.054017,-1.292422,0.775864,-0.012011,0.032538,-0.013092,0.238909,0.961504,-0.135770,0.010389,0.029662,0.042875,-0.242994,58.030556,20.099342,,,,,,
1478478750.36,1.054591,-1.292659,0.776125,-0.018298,0.028821,-0.016799,0.238789,0.961569,-0.135521,0.004711,0.026804,0.042457,-0.251159,57.991924,20.210423,,,,,,
1478478750.37,1.055011,-1.292916,0.776341,-0.018189,0.016474,-0.019042,0.238631,0.961639,-0.135299,0.000108,0.018204,0.032088,-0.267553,57.988255,20.220734,,,,,,
1478478750.38,1.055347,-1.293174,0.776632,-0.019296,-0.000848,-0.018766,0.238460,0.961710,-0.135096,-0.004299,0.015265,0.025401,-0.267553,57.988255,20.220734,,,,,,
1478478750.39,1.055575,-1.293425,0.777096,-0.020292,-0.029364,-0.010940,0.238281,0.961779,-0.134923,-0.010742,0.014570,0.018605,-0.294987,57.980560,20.242405,,,,,,
1478478750.40,1.055579,-1.293598,0.777733,-0.022478,-0.066513,-0.006665,0.238136,0.961826,-0.134840,-0.015007,0.010723,0.015409,-0.294987,57.980560,20.242405,,,,,,
1478478750.41,1.055268,-1.293684,0.778264,-0.014741,-0.082629,0.003530,0.238023,0.961849,-0.134873,-0.017808,0.008701,0.013535,-0.291054,57.970951,20.269970,,,,,,
1478478750.43,1.054746,-1.293666,0.778726,-0.008307,-0.095001,0.008738,0.237968,0.961844,-0.135006,-0.018241,0.006631,0.010311,-0.291054,57.970951,20.269970,,,,,,
1478478750.44,1.053927,-1.293571,0.778953,-0.000668,-0.101172,0.012632,0.237936,0.961819,-0.135246,-0.017569,0.002323,0.005348,-0.250388,57.965500,20.286087,,,,,,
1478478750.45,1.052986,-1.293450,0.779120,0.001891,-0.104857,0.011504,0.237910,0.961785,-0.135527,-0.012003,-0.000421,-0.001924,-0.250388,57.965500,20.286087,,,,,,
1478478750.46,1.050177,-1.292882,0.777435,0.009415,-0.098629,0.011507,0.238003,0.961630,-0.136467,0.000553,-0.006231,-0.008263,-0.193048,57.965813,20.285828,,,,,,
1478478750.48,1.047590,-1.292594,0.776765,0.015640,-0.088687,0.010203,0.237888,0.961551,-0.137220,0.006420,-0.007373,-0.006121,-0.153628,57.979706,20.246429,,,,,,
1478478750.47,1.048889,-1.292762,0.777133,0.013154,-0.093618,0.006571,0.237927,0.961597,-0.136831,0.006382,-0.007419,-0.006510,-0.153628,57.979706,20.246429,,,,,,
1478478750.49,1.046323,-1.292445,0.776362,0.015555,-0.079988,0.005149,0.237839,0.961510,-0.137594,0.008637,-0.004906,-0.007075,-0.153628,57.979706,20.246429,,,,,,
1478478750.50,1.044986,-1.292281,0.775771,0.021782,-0.070057,0.005071,0.237791,0.961465,-0.137991,0.009402,-0.003625,-0.002955,-0.083093,57.989311,20.219315,,,,,,
1478478750.51,1.044766,-1.291484,0.776127,0.016610,-0.057667,-0.001344,0.238423,0.961245,-0.138428,0.011760,-0.000628,-0.001465,-0.083093,57.989311,20.219315,,,,,,
1478478750.52,1.043690,-1.291424,0.775551,0.015256,-0.047770,-0.002757,0.238323,0.961229,-0.138713,0.012455,0.002455,0.000285,-0.009865,58.000210,20.188190,,,,,,
1478478750.53,1.042753,-1.291376,0.774984,0.015129,-0.034145,-0.005441,0.238233,0.961216,-0.138959,0.010211,0.006054,0.002729,-0.000993,58.003586,20.178495,,,,,,
1478478750.54,1.041981,-1.291367,0.774399,0.013698,-0.015601,-0.005775,0.238134,0.961213,-0.139148,0.010661,0.005813,0.000735,-0.000993,58.003586,20.178495,,,,,,
1478478750.55,1.041483,-1.291357,0.773984,0.008588,-0.009436,-0.007179,0.238072,0.961210,-0.139271,0.008876,0.008669,0.000233,0.004741,58.009712,20.160875,,,,,,
1478478750.56,1.040817,-1.291361,0.773428,0.013674,-0.013117,-0.007044,0.237976,0.961211,-0.139428,0.009811,0.007615,0.003487,0.004741,58.009712,20.160875,,,,,,
1478478750.57,1.040159,-1.291347,0.772907,0.011175,-0.015636,-0.003358,0.237896,0.961208,-0.139591,0.011570,0.004399,-0.001736,0.001834,58.014427,20.147301,,,,,,
1478478750.58,1.039391,-1.291276,0.772367,0.017584,-0.025514,-0.000646,0.237848,0.961188,-0.139808,0.009787,0.000619,-0.000115,0.001834,58.014427,20.147301,,,,,,
1478478750.59,1.038288,-1.291201,0.771497,0.021367,-0.025450,-0.005498,0.237755,0.961167,-0.140107,0.007316,-0.000169,-0.003234,0.005673,58.020374,20.130161,,,,,,
1478478750.60,1.037226,-1.291156,0.770867,0.015241,-0.046512,-0.005231,0.237644,0.961155,-0.140382,0.003475,0.001202,-0.003508,0.005673,58.020374,20.130161,,,,,,
1478478750.61,1.036346,-1.291089,0.770528,0.010265,-0.054025,0.002183,0.237576,0.961136,-0.140624,0.000843,0.001281,-0.008790,0.014057,58.028782,20.105915,,,,,,
1478478750.63,1.032281,-1.290530,0.767121,0.012805,-0.055248,0.002239,0.237463,0.960982,-0.141863,0.003382,0.007616,-0.007459,0.025785,58.031082,20.099266,,,,,,
1478478750.64,1.031063,-1.290258,0.766567,0.014171,-0.066382,0.003673,0.237515,0.960906,-0.142287,0.003208,0.007142,-0.002564,0.025785,58.031082,20.099266,,,,,,
1478478750.65,1.029821,-1.290123,0.766035,0.017981,-0.068823,0.002543,0.237449,0.960869,-0.142649,0.003274,0.007179,-0.002203,0.025785,58.031082,20.099266,,,,,,
1478478750.66,1.028786,-1.289863,0.765714,0.019267,-0.071289,0.002604,0.237515,0.960797,-0.143023,0.002155,-0.000683,0.000064,0.081252,58.062393,20.008480,,,,,,
1478478750.67,1.026870,-1.289639,0.764598,0.011733,-0.076281,0.002579,0.237425,0.960735,-0.143590,-0.000807,-0.003871,-0.002513,0.081252,58.062393,20.008480,,,,,,
1478478750.68,1.024826,-1.289764,0.763346,0.012952,-0.071327,0.002512,0.237028,0.960770,-0.144012,-0.004316,0.002975,-0.001816,0.124763,58.074192,19.973991,,,,,,
1478478750.69,1.022835,-1.289582,0.762047,0.012847,-0.060165,-0.001357,0.236890,0.960719,-0.144575,0.000125,0.001820,-0.004733,0.124763,58.074192,19.973991,,,,,,
1478478750.70,1.021774,-1.289558,0.761532,0.012774,-0.052703,-0.006390,0.236756,0.960713,-0.144838,0.001556,0.002529,-0.004027,0.137842,58.086891,19.936947,,,,,,
1478478750.72,1.019528,-1.289058,0.759714,0.018659,-0.005627,-0.012005,0.236839,0.960574,-0.145621,0.008278,0.005872,-0.006708,0.146007,58.089577,19.929058,,,,,,
1478478750.71,1.020382,-1.289049,0.760480,0.016315,-0.025451,-0.009251,0.236971,0.960571,-0.145423,0.008146,0.005875,-0.006905,0.146007,58.089577,19.929058,,,,,,
1478478750.73,1.018506,-1.289023,0.758548,0.029858,0.013002,-0.013384,0.236719,0.960564,-0.145881,0.011282,0.004280,-0.004754,0.165361,58.103333,19.888771,,,,,,
1478478750.74,1.017410,-1.288963,0.757136,0.036038,0.027891,-0.014773,0.236608,0.960547,-0.146170,0.015437,0.003137,-0.001230,0.165361,58.103333,19.888771,,,,,,
1478478750.75,1.016427,-1.288922,0.755740,0.032181,0.035290,-0.014953,0.236497,0.960536,-0.146423,0.015700,-0.000117,0.000244,0.141089,58.116489,19.850468,,,,,,
1478478750.76,1.015541,-1.288846,0.754397,0.037194,0.040235,-0.011285,0.236430,0.960515,-0.146672,0.016530,0.000118,-0.003444,0.141089,58.116489,19.850468,,,,,,
1478478750.77,1.014532,-1.288653,0.752920,0.046058,0.038978,-0.002551,0.236439,0.960461,-0.147008,0.009059,-0.001187,-0.004771,0.108474,58.130604,19.809315,,,,,,
1478478750.78,1.013454,-1.288367,0.751399,0.048626,0.035231,0.003682,0.236514,0.960381,-0.147408,0.009686,0.000221,-0.005073,0.108474,58.130604,19.809315,,,,,,
1478478750.79,1.013293,-1.286611,0.750818,0.047407,0.031450,0.011089,0.237921,0.959890,-0.148338,0.006769,-0.001806,-0.004479,0.090808,58.149635,19.753464,,,,,,
1478478750.80,1.011768,-1.286371,0.749028,0.037400,0.020280,0.008680,0.237889,0.959823,-0.148823,-0.002706,0.000840,-0.002056,0.164640,58.170486,19.691498,,,,,,
1478478750.81,1.010929,-1.286169,0.748019,0.033700,0.009200,0.000228,0.237929,0.959766,-0.149125,-0.002745,0.000896,-0.001754,0.164640,58.170486,19.691498,,,,,,
1478478750.82,1.008656,-1.286503,0.745714,0.023637,0.003049,-0.010853,0.237318,0.959860,-0.149495,-0.008024,0.004511,-0.002116,0.164640,58.170486,19.691498,,,,,,
1478478750.84,1.006227,-1.287307,0.743318,0.023677,-0.003031,-0.023016,0.236302,0.960085,-0.149658,-0.013188,0.007719,0.001053,0.120625,58.195553,19.617613,,,,,,
1478478750.85,1.002939,-1.289206,0.740047,0.019815,0.003234,-0.035446,0.234271,0.960615,-0.149453,-0.014453,0.015048,0.004037,0.062702,58.198349,19.609581,,,,,,
1478478750.86,1.001879,-1.289508,0.738807,0.009588,0.015604,-0.043161,0.233868,0.960699,-0.149545,-0.014050,0.014964,0.004129,0.062702,58.198349,19.609581,,,,,,
1478478750.87,1.001101,-1.289859,0.737739,0.005696,0.026723,-0.044631,0.233468,0.960796,-0.149545,-0.017998,0.016835,0.006799,-0.084332,58.195946,19.616638,,,,,,
1478478750.88,1.000515,-1.290255,0.736823,-0.004406,0.026643,-0.042323,0.233060,0.960906,-0.149477,-0.014706,0.017473,0.007982,-0.084332,58.195946,19.616638,,,,,,
1478478750.89,1.000114,-1.290708,0.736087,-0.010772,0.031594,-0.047404,0.232634,0.961031,-0.149335,-0.007170,0.016981,0.010388,-0.148847,58.197021,19.613068,,,,,,
1478478750.90,1.000083,-1.291156,0.735704,-0.015814,0.031492,-0.038890,0.232267,0.961155,-0.149109,0.000445,0.018414,0.011277,-0.148847,58.197021,19.613068,,,,,,
1478478750.91,1.000143,-1.291560,0.735367,-0.012061,0.036409,-0.032786,0.231949,0.961266,-0.148886,0.000610,0.012779,0.012121,-0.215337,58.192413,19.626114,,,,,,
1478478750.92,1.000236,-1.291927,0.735086,-0.010771,0.033912,-0.029046,0.231666,0.961367,-0.148673,-0.002372,0.011731,0.004188,-0.215337,58.192413,19.626114,,,,,,
1478478750.93,1.000092,-1.292278,0.734640,-0.005650,0.025347,-0.036186,0.231360,0.961464,-0.148525,-0.003058,0.009926,0.002879,-0.273099,58.186859,19.641842,,,,,,
1478478750.94,0.999766,-1.292545,0.734125,-0.000472,0.012926,-0.026090,0.231096,0.961537,-0.148461,-0.002077,0.010066,0.000329,-0.273099,58.186859,19.641842,,,,,,
1478478750.95,0.997431,-1.293005,0.731777,-0.007987,0.005491,-0.029754,0.230377,0.961664,-0.148760,-0.005066,0.002249,-0.005475,-0.320576,58.184483,19.648182,,,,,,
1478478750.96,0.995124,-1.293032,0.729555,-0.001573,-0.004418,-0.023362,0.230011,0.961671,-0.149278,-0.000641,0.000716,-0.008346,-0.320576,58.184483,19.648182,,,,,,
1478478750.97,0.992159,-1.292715,0.726723,0.000963,-0.005620,-0.025758,0.229823,0.961584,-0.150125,0.001088,-0.001745,-0.012503,-0.379115,58.199593,19.602325,,,,,,
1478478750.98,0.990254,-1.292280,0.724876,-0.000325,-0.001969,-0.019706,0.229886,0.961464,-0.150792,0.004275,-0.004342,-0.010173,-0.379115,58.199593,19.602325,,,,,,
1478478750.99,0.988891,-1.291704,0.723510,-0.001631,0.002970,-0.019807,0.230143,0.961306,-0.151410,0.007818,-0.004183,-0.010516,-0.376083,58.228645,19.515907,,,,,,
1478478751.01,0.989528,-1.291287,0.723794,-0.008098,0.021381,-0.007946,0.230575,0.961191,-0.151484,0.007767,0.003271,-0.001867,-0.359095,58.241039,19.479210,,,,,,
1478478751.00,0.989265,-1.291163,0.723748,-0.009321,0.016457,-0.011560,0.230634,0.961157,-0.151610,0.007708,0.003306,-0.001741,-0.359095,58.241039,19.479210,,,,,,
1478478751.02,0.991320,-1.290978,0.725265,-0.008152,0.027554,-0.006823,0.231095,0.961105,-0.151233,0.012252,0.004379,0.001056,-0.343346,58.244377,19.469532,,,,,,
1478478751.04,0.991627,-1.291078,0.725310,-0.004320,0.022640,-0.007911,0.231060,0.961133,-0.151109,0.015644,0.004977,0.003633,-0.343346,58.244377,19.469532,,,,,,
1478478751.05,0.991641,-1.291123,0.725056,0.003248,0.023921,-0.007824,0.231026,0.961146,-0.151082,0.011390,-0.000422,0.004537,-0.332335,58.239918,19.483051,,,,,,
1478478751.06,0.991436,-1.291176,0.724553,0.009512,0.028947,-0.012724,0.230952,0.961160,-0.151102,0.007344,-0.000940,-0.000555,-0.332335,58.239918,19.483051,,,,,,
1478478751.07,0.991160,-1.291288,0.723942,0.008252,0.027755,-0.018854,0.230821,0.961191,-0.151107,0.003463,-0.001673,-0.006608,-0.354223,58.242210,19.475815,,,,,,
1478478751.08,0.990694,-1.291420,0.723195,0.008291,0.022849,-0.023677,0.230645,0.961228,-0.151145,-0.004586,-0.000641,-0.012048,-0.354223,58.242210,19.475815,,,,,,
1478478751.09,0.990173,-1.291682,0.722396,0.004476,0.024157,-0.034792,0.230355,0.961300,-0.151127,-0.010232,0.001270,-0.017513,-0.389021,58.245567,19.465105,,,,,,
1478478751.10,0.989742,-1.291998,0.721724,-0.004321,0.019158,-0.034835,0.230036,0.961387,-0.151059,-0.011896,0.003289,-0.013568,-0.389021,58.245567,19.465105,,,,,,
1478478751.11,0.989441,-1.292402,0.721188,-0.011916,0.020381,-0.038644,0.229665,0.961498,-0.150915,-0.010092,0.007496,-0.010081,-0.439128,58.245689,19.463661,,,,,,
1478478751.12,0.987417,-1.293457,0.718947,-0.017038,0.028956,-0.032733,0.228513,0.961787,-0.150820,-0.000775,0.009496,-0.001325,-0.467692,58.243580,19.469313,,,,,,
1478478751.14,0.987736,-1.293942,0.718446,-0.019735,0.048677,-0.026972,0.228172,0.961920,-0.150491,0.003975,0.006708,-0.005255,-0.467692,58.243580,19.469313,,,,,,
1478478751.13,0.987242,-1.293599,0.718424,-0.018366,0.036359,-0.031650,0.228373,0.961826,-0.150786,0.003774,0.006802,-0.004961,-0.467692,58.243580,19.469313,,,,,,
1478478751.15,0.988292,-1.293806,0.718510,-0.024779,0.048596,-0.020911,0.228365,0.961883,-0.150436,0.007490,0.004945,-0.006455,-0.584786,58.238426,19.481556,,,,,,
1478478751.16,0.989485,-1.293471,0.719154,-0.019769,0.053562,-0.019695,0.228813,0.961791,-0.150340,0.011207,0.002427,-0.005284,-0.587234,58.239670,19.477770,,,,,,
1478478751.17,0.991036,-1.293164,0.720140,-0.018480,0.051075,-0.017180,0.229293,0.961707,-0.150147,0.011368,0.000848,-0.002929,-0.587234,58.239670,19.477770,,,,,,
1478478751.18,0.992678,-1.293102,0.721191,-0.005861,0.052397,-0.018246,0.229589,0.961690,-0.149803,0.008967,0.002772,0.001335,-0.564655,58.239719,19.478294,,,,,,
1478478751.19,0.994101,-1.293062,0.722040,-0.007091,0.048679,-0.018201,0.229834,0.961679,-0.149497,0.007913,0.001150,0.001395,-0.564655,58.239719,19.478294,,,,,,
1478478751.20,0.994352,-1.293186,0.721809,-0.000734,0.044954,-0.011914,0.229772,0.961713,-0.149374,0.001811,-0.001066,-0.003763,-0.567263,58.232513,19.499750,,,,,,
1478478751.21,0.994385,-1.293296,0.721378,0.004336,0.042542,-0.015479,0.229688,0.961743,-0.149309,-0.002165,-0.000226,-0.007475,-0.567263,58.232513,19.499750,,,,,,
1478478751.22,0.994327,-1.293383,0.720914,0.006933,0.035115,-0.012863,0.229610,0.961767,-0.149277,-0.004451,-0.001837,-0.008194,-0.602351,58.232819,19.497782,,,,,,
1478478751.23,0.994299,-1.293475,0.720575,0.001970,0.025191,-0.012768,0.229531,0.961792,-0.149235,-0.004677,-0.004258,-0.012218,-0.602351,58.232819,19.497782,,,,,,
1478478751.25,0.994125,-1.293569,0.720118,0.007019,0.025242,-0.015148,0.229429,0.961818,-0.149226,-0.008238,-0.000957,-0.009572,-0.631471,58.234341,19.492321,,,,,,
1478478751.26,0.994141,-1.293667,0.719853,-0.001808,0.023932,-0.012801,0.229353,0.961845,-0.149171,-0.008558,0.004540,-0.010909,-0.631471,58.234341,19.492321,,,,,,
1478478751.27,0.994199,-1.293817,0.719666,-0.004323,0.022681,-0.012816,0.229240,0.961886,-0.149079,-0.005852,0.003751,-0.006790,-0.657544,58.235359,19.488409,,,,,,
1478478751.28,0.994481,-1.293985,0.719698,-0.010650,0.023880,-0.012928,0.229147,0.961932,-0.148926,-0.005026,0.006544,-0.000213,-0.657544,58.235359,19.488409,,,,,,
1478478751.29,0.994998,-1.294875,0.719980,-0.014403,0.020126,-0.010467,0.228506,0.962175,-0.148342,-0.002508,0.005675,0.001766,-0.683958,58.232491,19.496088,,,,,,
1478478751.30,0.996476,-1.295450,0.721223,-0.021998,0.021349,-0.014277,0.228260,0.962331,-0.147703,-0.001194,0.006053,0.005232,-0.729743,58.221264,19.527910,,,,,,
1478478751.31,0.997061,-1.295697,0.721617,-0.020702,0.017646,-0.014196,0.228147,0.962398,-0.147440,-0.001081,0.005985,0.004969,-0.729743,58.221264,19.527910,,,,,,
1478478751.32,0.997909,-1.296059,0.722279,-0.025757,0.017637,-0.016722,0.227979,0.962496,-0.147058,0.001666,0.008115,0.000146,-0.765389,58.204876,19.575340,,,,,,
1478478751.33,0.998872,-1.296493,0.723052,-0.024519,0.020129,-0.017973,0.227770,0.962614,-0.146612,0.000380,0.006289,0.001700,-0.765389,58.204876,19.575340,,,,,,
1478478751.34,0.999598,-1.296938,0.723587,-0.025788,0.021327,-0.014332,0.227515,0.962735,-0.146215,-0.001197,0.006321,0.000494,-0.800446,58.189667,19.619120,,,,,,
1478478751.35,0.999665,-1.297445,0.723522,-0.024464,0.013955,-0.019095,0.227114,0.962872,-0.145936,-0.003192,0.005863,-0.001296,-0.800446,58.189667,19.619120,,,,,,
1478478751.36,1.000029,-1.297754,0.723802,-0.021884,0.007796,-0.020180,0.226918,0.962955,-0.145693,-0.002079,0.005047,-0.004560,-0.849726,58.176842,19.655039,,,,,,
1478478751.37,1.000364,-1.298026,0.724051,-0.020641,0.010267,-0.018978,0.226746,0.963028,-0.145475,-0.003281,0.001510,-0.007174,-0.849726,58.176842,19.655039,,,,,,
1478478751.38,1.000692,-1.298282,0.724253,-0.014348,0.012778,-0.018929,0.226586,0.963097,-0.145268,0.000053,0.002662,-0.009914,-0.877397,58.167953,19.680103,,,,,,
1478478751.39,1.000961,-1.298589,0.724392,-0.021932,0.012764,-0.022718,0.226376,0.963180,-0.145047,0.000522,0.002885,-0.011783,-0.877397,58.167953,19.680103,,,,,,
1478478751.40,1.001258,-1.298855,0.724514,-0.014393,0.017725,-0.019013,0.226203,0.963251,-0.144842,0.003686,0.000692,-0.011210,-0.907395,58.160069,19.702047,,,,,,
1478478751.41,1.001479,-1.299136,0.724543,-0.015664,0.017769,-0.025165,0.226007,0.963327,-0.144646,0.006216,0.000769,-0.009254,-0.907395,58.160069,19.702047,,,,,,
1478478751.42,1.001734,-1.299483,0.724593,-0.020732,0.019008,-0.028938,0.225763,0.963420,-0.144408,0.006079,0.002660,-0.008729,-0.940263,58.153175,19.720848,,,,,,
1478478751.43,1.002137,-1.299819,0.724757,-0.019528,0.026384,-0.022913,0.225548,0.963510,-0.144143,0.006233,0.001776,-0.005531,-0.940263,58.153175,19.720848,,,,,,
1478478751.44,1.002600,-1.300168,0.724896,-0.019591,0.032609,-0.027925,0.225331,0.963603,-0.143857,0.006389,-0.000056,-0.003237,-0.980830,58.144436,19.744625,,,,,,
1478478751.46,1.004853,-1.299882,0.726724,-0.032264,0.036307,-0.035528,0.225887,0.963527,-0.143497,0.008061,0.007207,-0.002743,-1.003279,58.139839,19.757034,,,,,,
1478478751.47,1.006387,-1.299986,0.727860,-0.037318,0.036287,-0.036827,0.226023,0.963554,-0.143097,0.009176,0.008461,-0.002518,-1.003279,58.139839,19.757034,,,,,,
1478478751.48,1.007259,-1.300536,0.728410,-0.041061,0.031308,-0.035570,0.225699,0.963702,-0.142616,0.009500,0.008314,-0.002998,-1.003279,58.139839,19.757034,,,,,,
1478478751.49,1.009568,-1.300852,0.730408,-0.042267,0.025106,-0.034256,0.225770,0.963786,-0.141933,0.007797,0.007085,0.001293,-1.017273,58.120449,19.813284,,,,,,
1478478751.50,1.013639,-1.301624,0.734135,-0.037189,0.022631,-0.030461,0.225714,0.963991,-0.140619,0.003900,0.007200,0.007181,-1.023890,58.108181,19.848892,,,,,,
1478478751.51,1.014482,-1.302148,0.734844,-0.043409,0.011494,-0.034042,0.225403,0.964131,-0.140162,0.004211,0.007061,0.006724,-1.023890,58.108181,19.848892,,,,,,
1478478751.52,1.016893,-1.302762,0.737193,-0.045821,-0.000909,-0.031415,0.225237,0.964293,-0.139307,0.003858,0.005509,0.005747,-1.064075,58.074100,19.946281,,,,,,
1478478751.53,1.017677,-1.303319,0.738090,-0.047009,-0.009553,-0.033739,0.224890,0.964441,-0.138848,-0.003058,0.005927,0.003076,-1.064075,58.074100,19.946281,,,,,,
1478478751.54,1.018314,-1.303751,0.738949,-0.034275,-0.019456,-0.023576,0.224623,0.964555,-0.138486,-0.004363,0.004821,-0.002002,-1.096838,58.046593,20.024424,,,,,,
1478478751.55,1.018533,-1.304124,0.739415,-0.029187,-0.023147,-0.022214,0.224347,0.964653,-0.138248,-0.002881,0.000130,-0.006680,-1.096838,58.046593,20.024424,,,,,,
1478478751.56,1.018814,-1.304458,0.739972,-0.027918,-0.023181,-0.017289,0.224112,0.964741,-0.138016,-0.003271,0.001522,-0.011154,-1.117507,58.031593,20.066708,,,,,,
1478478751.57,1.019352,-1.304749,0.740722,-0.034305,-0.014602,-0.012620,0.223947,0.964818,-0.137749,-0.001489,-0.002690,-0.010872,-1.117507,58.031593,20.066708,,,,,,
1478478751.58,1.020012,-1.305008,0.741605,-0.030476,-0.018332,-0.007596,0.223825,0.964886,-0.137470,-0.002542,-0.002911,-0.008069,-1.129044,58.018738,20.103212,,,,,,
1478478751.59,1.020772,-1.305229,0.742580,-0.031758,-0.015886,-0.005203,0.223747,0.964944,-0.137188,0.002312,-0.002679,-0.007679,-1.129044,58.018738,20.103212,,,,,,
1478478751.60,1.021297,-1.305425,0.743317,-0.024162,-0.018284,-0.008732,0.223658,0.964995,-0.136972,0.006048,-0.003081,-0.010245,-1.130471,58.005135,20.142347,,,,,,
1478478751.61,1.021794,-1.305647,0.744024,-0.025425,-0.018291,-0.008751,0.223543,0.965053,-0.136749,0.010679,-0.002239,-0.007767,-1.130471,58.005135,20.142347,,,,,,
1478478751.62,1.021267,-1.305174,0.743739,-0.029216,-0.018294,-0.011258,0.223860,0.964929,-0.137105,0.002977,0.002615,-0.004176,-1.132168,57.994041,20.174160,,,,,,
1478478751.63,1.021308,-1.305239,0.743907,-0.026798,-0.007096,-0.017544,0.223813,0.964946,-0.137063,0.003330,0.005467,-0.003821,-1.105968,58.000713,20.156427,,,,,,
1478478751.64,1.021917,-1.305521,0.744541,-0.026881,0.002757,-0.012806,0.223664,0.965020,-0.136785,0.003478,0.005393,-0.004099,-1.105968,58.000713,20.156427,,,,,,
1478478751.66,1.022350,-1.305816,0.744948,-0.029441,0.006452,-0.012906,0.223480,0.965098,-0.136540,-0.000199,0.003088,-0.001552,-1.114229,57.993240,20.177465,,,,,,
1478478751.67,1.023292,-1.306327,0.745859,-0.039544,0.006382,-0.011824,0.223188,0.965231,-0.136073,-0.002119,0.004236,0.000208,-1.114229,57.993240,20.177465,,,,,,
1478478751.68,1.024246,-1.306965,0.746793,-0.031942,0.003942,-0.010447,0.222791,0.965398,-0.135539,-0.004377,0.002314,0.002284,-1.145761,57.978241,20.218765,,,,,,
1478478751.69,1.024598,-1.307543,0.747540,-0.035228,-0.051735,-0.009556,0.222362,0.965549,-0.135171,-0.004176,0.004926,0.001153,-1.145761,57.978241,20.218765,,,,,,
1478478751.70,1.024640,-1.307798,0.748449,-0.027371,-0.082599,-0.010148,0.222157,0.965615,-0.135034,-0.002659,0.008140,-0.000174,-1.186378,57.956902,20.277527,,,,,,
1478478751.71,1.024399,-1.308086,0.749045,-0.027462,-0.073858,-0.020108,0.221887,0.965690,-0.134943,-0.004968,0.009622,0.001932,-1.186378,57.956902,20.277527,,,,,,
1478478751.72,1.024006,-1.308473,0.749239,-0.020121,-0.048985,-0.031460,0.221515,0.965790,-0.134836,0.000409,0.009018,-0.016715,-1.167944,57.944084,20.315176,,,,,,
1478478751.73,1.023689,-1.308959,0.749268,-0.027933,-0.024232,-0.039350,0.221071,0.965916,-0.134661,0.006438,0.012889,-0.026517,-1.167944,57.944084,20.315176,,,,,,
1478478751.74,1.023561,-1.309485,0.749332,-0.028005,-0.016780,-0.043156,0.220620,0.966052,-0.134425,-0.006448,0.012723,-0.012547,-1.190602,57.933002,20.345446,,,,,,
1478478751.75,1.023690,-1.310044,0.749535,-0.031907,-0.004435,-0.043420,0.220177,0.966196,-0.134116,-0.014091,0.007070,-0.001199,-1.190602,57.933002,20.345446,,,,,,
1478478751.76,1.023948,-1.310576,0.749803,-0.033205,0.000443,-0.036163,0.219772,0.966333,-0.133792,-0.013763,0.002005,0.001758,-1.236958,57.919239,20.381832,,,,,,
1478478751.77,1.024406,-1.311075,0.750299,-0.033166,-0.003299,-0.032420,0.219421,0.966462,-0.133441,-0.008330,0.003692,0.003558,-1.236958,57.919239,20.381832,,,,,,
1478478751.78,1.023609,-1.311150,0.749682,-0.041933,-0.009650,-0.018949,0.219252,0.966481,-0.133578,0.002626,0.003520,-0.004804,-1.281610,57.903889,20.422659,,,,,,
1478478751.79,1.024603,-1.311552,0.750917,-0.048156,-0.019602,-0.016418,0.219053,0.966584,-0.133158,0.002825,0.003417,-0.005224,-1.281610,57.903889,20.422659,,,,,,
1478478751.80,1.026137,-1.311461,0.752665,-0.051987,-0.014698,-0.014102,0.219333,0.966561,-0.132868,0.007947,0.002159,-0.003927,-1.281610,57.903889,20.422659,,,,,,
1478478751.81,1.028696,-1.311328,0.755348,-0.050797,-0.006064,-0.010550,0.219782,0.966527,-0.132372,0.011236,0.006923,-0.001768,-1.271089,57.889175,20.464983,,,,,,
1478478751.82,1.032093,-1.311371,0.758750,-0.054651,0.001313,-0.008277,0.220195,0.966538,-0.131603,0.010015,0.005981,0.001675,-1.271089,57.889175,20.464983,,,,,,
1478478751.83,1.035998,-1.311405,0.762535,-0.049688,0.011237,-0.008371,0.220679,0.966546,-0.130726,0.010736,0.001776,0.004993,-1.221590,57.863796,20.539627,,,,,,
1478478751.84,1.039548,-1.311736,0.765960,-0.050936,0.009962,-0.004688,0.220866,0.966631,-0.129780,0.004613,0.001768,0.006916,-1.221590,57.863796,20.539627,,,,,,
1478478751.85,1.041819,-1.312117,0.768216,-0.049624,0.004991,-0.000906,0.220841,0.966729,-0.129092,-0.000550,0.000511,0.002520,-1.195217,57.827991,20.641760,,,,,,
1478478751.87,1.043237,-1.312408,0.769703,-0.045774,-0.002365,-0.005632,0.220782,0.966803,-0.128637,-0.003390,-0.002463,-0.007334,-1.195217,57.827991,20.641760,,,,,,
1478478751.88,1.044683,-1.312713,0.771304,-0.046949,-0.012257,-0.006709,0.220712,0.966881,-0.128169,-0.004724,-0.000145,-0.008626,-1.202279,57.803772,20.709078,,,,,,
1478478751.89,1.045942,-1.313017,0.772760,-0.045666,-0.014702,-0.009102,0.220619,0.966958,-0.127744,-0.003044,0.004508,-0.010348,-1.202279,57.803772,20.709078,,,,,,
1478478751.90,1.047213,-1.313355,0.774200,-0.044429,-0.012200,-0.011579,0.220498,0.967045,-0.127300,0.000708,0.005825,-0.013905,-1.204848,57.783279,20.766047,,,,,,
1478478751.91,1.048410,-1.313711,0.775455,-0.043281,0.000196,-0.014225,0.220352,0.967135,-0.126864,-0.000122,0.009214,-0.007581,-1.204848,57.783279,20.766047,,,,,,
1478478751.92,1.049624,-1.314111,0.776649,-0.043346,0.006442,-0.021690,0.220170,0.967237,-0.126404,0.002746,0.004321,-0.006439,-1.216881,57.763382,20.820623,,,,,,
1478478751.93,1.050883,-1.314550,0.777792,-0.047214,0.015077,-0.021891,0.219961,0.967348,-0.125916,-0.000997,0.004393,-0.007537,-1.216881,57.763382,20.820623,,,,,,
1478478751.94,1.052585,-1.314947,0.779423,-0.053472,0.010010,-0.012085,0.219841,0.967449,-0.125351,-0.002708,0.006352,-0.004181,-1.246264,57.743423,20.874184,,,,,,
1478478751.95,1.054439,-1.315350,0.781197,-0.057295,0.013698,-0.012202,0.219734,0.967551,-0.124751,-0.004021,0.006586,-0.008672,-1.256965,57.731636,20.906109,,,,,,
1478478751.96,1.051171,-1.315597,0.778118,-0.067297,0.002506,-0.012159,0.219118,0.967613,-0.125349,-0.000383,0.006554,-0.010774,-1.267230,57.719158,20.939930,,,,,,
1478478751.97,1.050990,-1.316036,0.778104,-0.065970,-0.004877,-0.015695,0.218727,0.967724,-0.125178,-0.001472,0.008549,-0.009084,-1.267230,57.719158,20.939930,,,,,,
1478478751.98,1.053050,-1.316604,0.780320,-0.076040,-0.009821,-0.023116,0.218506,0.967867,-0.124455,-0.001251,0.008406,-0.009807,-1.267230,57.719158,20.939930,,,,,,
1478478751.99,1.053740,-1.317265,0.781244,-0.077299,-0.011014,-0.029247,0.218036,0.968033,-0.123988,-0.000720,0.010040,-0.007024,-1.325157,57.708633,20.965334,,,,,,
1478478752.00,1.055454,-1.318253,0.783098,-0.086229,-0.001182,-0.028316,0.217415,0.968280,-0.123143,-0.002190,0.013226,-0.002239,-1.325157,57.708633,20.965334,,,,,,
1478478752.01,1.057098,-1.319300,0.784847,-0.087521,0.000161,-0.041849,0.216735,0.968541,-0.122287,-0.002318,0.011516,-0.002972,-1.382054,57.677322,21.047649,,,,,,
1478478752.02,1.059419,-1.320109,0.787174,-0.087583,0.007551,-0.038295,0.216335,0.968742,-0.121400,-0.006877,0.009178,0.002397,-1.382054,57.677322,21.047649,,,,,,
1478478752.03,1.061837,-1.320912,0.789588,-0.088833,0.006296,-0.037065,0.215948,0.968941,-0.120498,-0.006826,0.010048,0.001983,-1.446866,57.637871,21.151134,,,,,,
1478478752.04,1.064324,-1.321706,0.792126,-0.087518,0.000140,-0.039395,0.215574,0.969137,-0.119587,-0.007185,0.008463,0.001515,-1.446866,57.637871,21.151134,,,,,,
1478478752.05,1.066708,-1.322472,0.794611,-0.087481,-0.003591,-0.036879,0.215208,0.969326,-0.118714,-0.007994,0.006748,-0.002426,-1.495098,57.597515,21.257425,,,,,,
1478478752.07,1.068864,-1.323125,0.797016,-0.078470,-0.020936,-0.026644,0.214909,0.969486,-0.117945,-0.005818,0.004071,-0.001409,-1.495098,57.597515,21.257425,,,,,,
1478478752.08,1.070775,-1.323746,0.799280,-0.075873,-0.028363,-0.024029,0.214606,0.969638,-0.117246,-0.004584,0.001859,-0.006457,-1.528975,57.559475,21.357822,,,,,,
1478478752.09,1.072552,-1.324238,0.801555,-0.066884,-0.043235,-0.013836,0.214395,0.969758,-0.116636,-0.001398,0.000014,-0.006731,-1.528975,57.559475,21.357822,,,,,,
1478478752.10,1.074210,-1.324644,0.803774,-0.065571,-0.048206,-0.010054,0.214241,0.969857,-0.116093,0.000511,-0.002130,-0.010036,-1.539251,57.526524,21.445677,,,,,,
1478478752.11,1.075527,-1.324969,0.805680,-0.051648,-0.050639,-0.004906,0.214117,0.969936,-0.115661,0.004496,-0.000378,-0.008271,-1.539251,57.526524,21.445677,,,,,,
1478478752.12,1.072315,-1.323402,0.803196,-0.041534,-0.050611,-0.001080,0.215079,0.969554,-0.117074,0.003808,-0.009364,-0.012351,-1.526636,57.499802,21.518127,,,,,,
1478478752.13,1.069993,-1.322484,0.801503,-0.031462,-0.045667,0.006342,0.215588,0.969329,-0.118001,0.005451,-0.010298,-0.015132,-1.526636,57.499802,21.518127,,,,,,
1478478752.14,1.070469,-1.322541,0.802449,-0.020140,-0.040643,0.005194,0.215595,0.969343,-0.117872,0.005444,-0.010313,-0.015261,-1.526636,57.499802,21.518127,,,,,,
1478478752.15,1.068339,-1.321414,0.800785,-0.018915,-0.035720,0.008809,0.216301,0.969065,-0.118857,0.008187,-0.012034,-0.015070,-1.384315,57.542145,21.414307,,,,,,
1478478752.16,1.066852,-1.320412,0.799747,-0.016387,-0.035705,0.008846,0.216974,0.968817,-0.119647,0.008383,-0.009650,-0.013226,-1.384315,57.542145,21.414307,,,,,,
1478478752.17,1.065149,-1.319385,0.798397,-0.008908,-0.024519,0.007540,0.217640,0.968562,-0.120498,0.009517,-0.008174,-0.014267,-1.274014,57.578590,21.323000,,,,,,
1478478752.18,1.064484,-1.318532,0.797974,-0.010236,-0.017117,0.008624,0.218282,0.968350,-0.121043,0.009791,-0.005444,-0.010518,-1.274014,57.578590,21.323000,,,,,,
1478478752.19,1.064716,-1.318494,0.798399,-0.008974,-0.017099,0.007415,0.218342,0.968340,-0.121011,0.009670,-0.005526,-0.009528,-1.177715,57.607918,21.249197,,,,,,
1478478752.20,1.065270,-1.318456,0.799130,-0.012802,-0.012216,0.012183,0.218442,0.968331,-0.120908,0.008456,-0.003044,-0.010119,-1.177715,57.607918,21.249197,,,,,,
1478478752.21,1.065910,-1.318390,0.799864,-0.011617,-0.003551,0.012054,0.218575,0.968314,-0.120799,0.005744,-0.000663,-0.006795,-1.158711,57.603580,21.261999,,,,,,
1478478752.22,1.066493,-1.318352,0.800477,-0.014179,0.000155,0.010728,0.218678,0.968305,-0.120689,0.002544,-0.001798,-0.001046,-1.158711,57.603580,21.261999,,,,,,
1478478752.23,1.067273,-1.318321,0.801289,-0.014175,0.000134,0.013181,0.218799,0.968297,-0.120533,0.004193,-0.000417,-0.001553,-1.142382,57.598679,21.276155,,,,,,
1478478752.24,1.068103,-1.318272,0.802137,-0.014172,0.000113,0.015635,0.218940,0.968285,-0.120374,0.001565,0.000023,0.000226,-1.142382,57.598679,21.276155,,,,,,
1478478752.25,1.068640,-1.318204,0.802812,-0.010244,-0.015901,0.011056,0.219062,0.968268,-0.120288,0.001992,0.003778,0.000232,-1.126871,57.592079,21.294847,,,,,,
1478478752.26,1.068978,-1.318199,0.803373,-0.011472,-0.020793,0.003762,0.219107,0.968267,-0.120217,0.000223,0.004619,0.001244,-1.126871,57.592079,21.294847,,,,,,
1478478752.28,1.069285,-1.318238,0.803929,-0.013990,-0.022024,0.001293,0.219111,0.968276,-0.120131,-0.001231,0.005204,0.000960,-1.107785,57.587299,21.308764,,,,,,
1478478752.29,1.068190,-1.318743,0.803144,-0.019042,-0.022055,0.001219,0.218551,0.968402,-0.120135,-0.004103,0.010693,-0.002637,-1.100946,57.584343,21.317104,,,,,,
1478478752.30,1.068556,-1.318873,0.803714,-0.017842,-0.015811,-0.005001,0.218484,0.968435,-0.119995,-0.004037,0.010661,-0.002778,-1.100946,57.584343,21.317104,,,,,,
