timestamp(unix),attitude_roll(radians),attitude_pitch(radians),attitude_yaw(radians),rotation_rate_x(radians/s),rotation_rate_y(radians/s),rotation_rate_z(radians/s),gravity_x(G),gravity_y(G),gravity_z(G),user_acc_x(G),user_acc_y(G),user_acc_z(G),magnetic_field_x(microteslas),magnetic_field_y(microteslas),magnetic_field_z(microteslas),latitude(degree),longitude(degree),altitude(meter),speed(m/s),course(degree),timestamp(unix)
1478536461.20,-0.191648,0.536815,-0.271073,-0.245544,-0.168366,0.031110,-0.163685,-0.511401,-0.843609,0.007893,-0.031232,0.078488,14.600851,-23.809122,-33.685081,,,,,,
1478536461.21,-0.192121,0.534348,-0.271697,-0.230397,-0.035436,-0.029785,-0.164324,-0.509280,-0.844767,-0.021680,-0.029279,0.082804,14.418253,-23.690289,-33.847130,,,,,,
1478536461.22,-0.190278,0.532725,-0.273236,-0.154869,0.122754,-0.109858,-0.162923,-0.507883,-0.845879,-0.016948,-0.016531,0.071877,14.418253,-23.690289,-33.847130,,,,,,
1478536461.23,-0.188449,0.532105,-0.275039,-0.059660,0.066692,-0.139425,-0.161435,-0.507349,-0.846485,-0.019031,-0.004462,0.063495,14.452145,-23.527035,-33.946400,,,,,,
1478536461.24,-0.187914,0.532423,-0.276450,0.029862,-0.050539,-0.105493,-0.160952,-0.507622,-0.846413,-0.032423,-0.030265,0.045738,14.452145,-23.527035,-33.946400,,,,,,
1478536461.25,-0.189077,0.533230,-0.276698,0.083839,-0.140053,-0.011218,-0.161859,-0.508318,-0.845822,-0.029731,-0.001753,0.017453,14.539549,-23.460697,-33.954990,,,,,,
1478536461.26,-0.191034,0.534120,-0.276387,0.086745,-0.179760,0.006664,-0.163428,-0.509084,-0.845059,0.002081,0.037084,0.013928,14.539549,-23.460697,-33.954990,,,,,,
1478536461.27,-0.190876,0.528548,-0.277912,0.054276,-0.231295,-0.064069,-0.163830,-0.504280,-0.847857,-0.014729,0.007225,0.032626,14.440960,-23.513779,-33.960342,,,,,,
1478536461.28,-0.193004,0.528649,-0.279183,-0.040187,-0.268542,-0.113862,-0.165625,-0.504367,-0.847456,-0.034327,-0.023648,0.025374,14.425499,-23.315748,-34.103149,,,,,,
1478536461.29,-0.194881,0.527569,-0.280904,-0.155245,-0.256853,-0.115720,-0.167320,-0.503434,-0.847678,-0.032632,-0.024581,0.025596,14.425499,-23.315748,-34.103149,,,,,,
1478536461.30,-0.196216,0.525543,-0.282800,-0.237863,-0.200446,-0.117865,-0.168650,-0.501682,-0.848453,-0.035101,-0.010647,0.023196,14.425499,-23.315748,-34.103149,,,,,,
1478536461.31,-0.196117,0.522949,-0.285119,-0.288423,-0.060763,-0.146709,-0.168819,-0.499437,-0.849743,-0.021077,0.003206,0.013408,14.241619,-23.135933,-34.302315,,,,,,
1478536461.32,-0.194395,0.520238,-0.287664,-0.294663,0.069151,-0.158803,-0.167616,-0.497086,-0.851358,-0.023470,-0.009460,0.009485,14.241619,-23.135933,-34.302315,,,,,,
1478536461.33,-0.191957,0.517546,-0.290222,-0.287549,0.121109,-0.155898,-0.165795,-0.494749,-0.853074,-0.024604,-0.025606,0.026414,14.292158,-22.884634,-34.449551,,,,,,
1478536461.35,-0.189300,0.515151,-0.292537,-0.251182,0.152141,-0.143633,-0.163750,-0.492667,-0.854673,-0.030723,-0.027277,0.018278,14.370426,-22.755013,-34.502815,,,,,,
1478536461.36,-0.186153,0.512760,-0.294684,-0.265635,0.216225,-0.127753,-0.161277,-0.490584,-0.856339,-0.022744,-0.014451,0.002472,14.370426,-22.755013,-34.502815,,,,,,
1478536461.37,-0.182191,0.509785,-0.296801,-0.328262,0.298620,-0.117783,-0.158147,-0.487990,-0.858403,-0.022502,-0.013246,-0.002300,14.560955,-22.525326,-34.573578,,,,,,
1478536461.38,-0.177303,0.506041,-0.298790,-0.397354,0.399404,-0.093500,-0.154270,-0.484718,-0.860958,-0.027813,-0.018822,0.012402,14.560955,-22.525326,-34.573578,,,,,,
1478536461.39,-0.171187,0.501566,-0.300789,-0.464176,0.525156,-0.095361,-0.149370,-0.480800,-0.864014,-0.028960,-0.014104,0.033967,14.849648,-22.240211,-34.635315,,,,,,
1478536461.40,-0.162691,0.496377,-0.303367,-0.540763,0.747647,-0.137016,-0.142427,-0.476243,-0.867702,-0.029448,-0.017592,0.029247,14.849648,-22.240211,-34.635315,,,,,,
1478536461.41,-0.153270,0.490789,-0.306117,-0.562389,0.763650,-0.143731,-0.134650,-0.471322,-0.871622,-0.043909,-0.015113,0.032480,15.330957,-21.851585,-34.672955,,,,,,
1478536461.42,-0.145346,0.485592,-0.308677,-0.497577,0.580981,-0.139711,-0.128092,-0.466732,-0.875073,-0.059942,-0.033863,0.064526,15.330957,-21.851585,-34.672955,,,,,,
1478536461.43,-0.145276,0.481721,-0.309061,-0.302044,0.317073,-0.234228,-0.128291,-0.463305,-0.876863,-0.033071,-0.012982,-0.017347,15.909981,-21.410635,-34.687191,,,,,,
1478536461.44,-0.141278,0.481430,-0.314665,-0.025990,0.062709,-0.521524,-0.124803,-0.463047,-0.877503,0.011308,0.011738,-0.041580,15.909981,-21.410635,-34.687191,,,,,,
1478536461.45,-0.140546,0.483799,-0.321521,0.185765,-0.319783,-0.619939,-0.124007,-0.465145,-0.876506,-0.002382,0.111492,-0.043584,16.053638,-21.166910,-34.770485,,,,,,
1478536461.46,-0.143009,0.487659,-0.328815,0.295928,-0.636490,-0.673098,-0.125908,-0.468559,-0.874414,-0.035286,0.230949,-0.047614,16.053638,-21.166910,-34.770485,,,,,,
1478536461.47,-0.147126,0.489938,-0.336915,0.262280,-0.832971,-0.714419,-0.129351,-0.470571,-0.872829,0.026049,0.089086,-0.058994,16.044760,-21.106596,-34.811226,,,,,,
1478536461.48,-0.152350,0.492815,-0.345034,0.131182,-0.862265,-0.707232,-0.133702,-0.473108,-0.870800,0.016515,0.019906,-0.028797,16.044760,-21.106596,-34.811226,,,,,,
1478536461.49,-0.157490,0.493643,-0.352936,-0.083749,-0.833143,-0.648278,-0.138115,-0.473837,-0.869714,0.018654,-0.030908,0.019525,15.765739,-20.973982,-35.018246,,,,,,
1478536461.50,-0.161415,0.492028,-0.359836,-0.300293,-0.613111,-0.499359,-0.141650,-0.472415,-0.869919,0.013751,-0.111234,0.066407,15.600582,-20.855154,-35.162880,,,,,,
1478536461.51,-0.161869,0.486337,-0.363460,-0.692903,-0.025271,-0.099182,-0.142476,-0.467391,-0.872494,0.014577,-0.116258,0.068982,15.600582,-20.855154,-35.162880,,,,,,
1478536461.52,-0.155902,0.476349,-0.363538,-1.001421,0.747064,0.187487,-0.137986,-0.458538,-0.877897,-0.017501,-0.155339,0.108381,15.436159,-20.423927,-35.487068,,,,,,
1478536461.53,-0.143814,0.464944,-0.363296,-1.071896,1.274881,0.165295,-0.128105,-0.448373,-0.884619,-0.039131,-0.171134,0.132406,15.436159,-20.423927,-35.487068,,,,,,
1478536461.54,-0.129003,0.455185,-0.364044,-0.864463,1.366323,0.029383,-0.115547,-0.439629,-0.890716,-0.073067,-0.077125,0.135849,16.012524,-19.726389,-35.626011,,,,,,
1478536461.56,-0.117336,0.448734,-0.366089,-0.550943,0.887430,-0.145671,-0.105477,-0.433825,-0.894802,-0.090568,0.080752,0.068218,16.012524,-19.726389,-35.626011,,,,,,
1478536461.57,-0.110029,0.445589,-0.370190,-0.270438,0.427330,-0.376692,-0.099085,-0.430989,-0.896900,-0.118383,0.133474,-0.029781,16.918049,-19.136717,-35.528996,,,,,,
1478536461.58,-0.104430,0.444856,-0.377031,-0.095768,0.211780,-0.646484,-0.094095,-0.430328,-0.897755,-0.161978,0.098755,-0.096599,16.918049,-19.136717,-35.528996,,,,,,
1478536461.59,-0.098103,0.444927,-0.386954,-0.088379,0.196764,-0.912264,-0.088410,-0.430392,-0.898302,-0.167740,0.071215,-0.052732,17.386328,-18.800255,-35.482529,,,,,,
1478536461.60,-0.091370,0.444576,-0.399150,-0.143387,0.112417,-1.067395,-0.082373,-0.430075,-0.899027,-0.237329,0.016851,0.103755,17.386328,-18.800255,-35.482529,,,,,,
1478536461.61,-0.085639,0.443629,-0.411872,-0.202981,-0.004104,-1.077327,-0.077255,-0.429220,-0.899890,-0.267044,0.002294,0.160296,17.880880,-18.371174,-35.461502,,,,,,
1478536461.62,-0.081463,0.441653,-0.424408,-0.303945,-0.150845,-1.053005,-0.073565,-0.427435,-0.901048,-0.275923,0.029836,0.195131,17.880880,-18.371174,-35.461502,,,,,,
1478536461.63,-0.079982,0.439083,-0.436762,-0.320164,-0.451554,-1.040804,-0.072318,-0.425109,-0.902248,-0.252938,0.084686,0.230007,18.254616,-17.791632,-35.566429,,,,,,
1478536461.65,-0.090975,0.440916,-0.463395,0.227294,-1.377551,-1.266239,-0.082160,-0.426768,-0.900621,-0.108880,0.133372,0.062837,18.312454,-17.468357,-35.696705,,,,,,
1478536461.64,-0.083357,0.438238,-0.449454,-0.099588,-0.966627,-1.102512,-0.075392,-0.424344,-0.902357,-0.115648,0.130948,0.064573,18.312454,-17.468357,-35.696705,,,,,,
1478536461.66,-0.099951,0.446673,-0.479473,0.468452,-1.533850,-1.475975,-0.089995,-0.431967,-0.897388,-0.088198,0.172003,-0.084973,17.927271,-17.022177,-36.105434,,,,,,
1478536461.67,-0.108027,0.453750,-0.497616,0.495581,-1.486326,-1.665260,-0.096907,-0.438339,-0.893570,-0.081148,0.171310,-0.164672,17.927271,-17.022177,-36.105434,,,,,,
1478536461.68,-0.112065,0.459550,-0.518058,0.299026,-1.144768,-1.833302,-0.100228,-0.443545,-0.890630,-0.079994,0.135592,-0.182322,17.311686,-16.811012,-36.502594,,,,,,
1478536461.69,-0.111335,0.462525,-0.539634,-0.006440,-0.750804,-1.841909,-0.099431,-0.446209,-0.889388,-0.051890,0.095150,-0.134812,17.311686,-16.811012,-36.502594,,,,,,
1478536461.70,-0.109783,0.461479,-0.559558,-0.380396,-0.714160,-1.616127,-0.098102,-0.445273,-0.890005,-0.016309,0.045844,-0.037592,17.145651,-16.317469,-36.803680,,,,,,
1478536461.71,-0.110091,0.456804,-0.576951,-0.666331,-0.768763,-1.359325,-0.098603,-0.441082,-0.892033,0.043092,0.038205,0.042592,17.145651,-16.317469,-36.803680,,,,,,
1478536461.72,-0.111941,0.450252,-0.591283,-0.770760,-0.776707,-1.079840,-0.100574,-0.435193,-0.894702,0.135059,0.088055,0.062183,17.096291,-15.411977,-37.214672,,,,,,
1478536461.73,-0.115584,0.443363,-0.602492,-0.746040,-0.820828,-0.817504,-0.104176,-0.428980,-0.897287,0.192555,0.040079,0.051416,17.096291,-15.411977,-37.214672,,,,,,
1478536461.74,-0.121482,0.437488,-0.610838,-0.594386,-0.938077,-0.591347,-0.109770,-0.423666,-0.899143,0.225904,-0.009394,0.019947,16.792658,-14.452803,-37.734161,,,,,,
1478536461.75,-0.130042,0.433420,-0.616990,-0.405913,-1.087765,-0.451190,-0.117686,-0.419977,-0.899872,0.245676,-0.050177,-0.050995,16.792658,-14.452803,-37.734161,,,,,,
1478536461.77,-0.138474,0.430739,-0.622307,-0.290754,-0.966167,-0.417240,-0.125424,-0.417542,-0.899960,0.220639,-0.113677,-0.138798,16.176626,-13.822165,-38.236221,,,,,,
1478536461.78,-0.144802,0.428369,-0.627690,-0.303912,-0.770679,-0.437900,-0.131258,-0.415388,-0.900125,0.190004,-0.134997,-0.082984,15.828680,-13.624654,-38.452118,,,,,,
1478536461.79,-0.148169,0.424732,-0.633846,-0.470744,-0.488023,-0.492912,-0.134510,-0.412077,-0.901166,0.193257,-0.138308,-0.081943,15.828680,-13.624654,-38.452118,,,,,,
1478536461.81,-0.138853,0.408952,-0.649883,-1.065277,0.571514,-0.590515,-0.126994,-0.397648,-0.908707,0.096354,-0.198269,0.034760,15.397295,-13.188330,-38.778027,,,,,,
1478536461.80,-0.146817,0.418390,-0.641459,-0.775640,-0.029012,-0.588461,-0.133672,-0.406290,-0.903914,0.103032,-0.189627,0.029967,15.397295,-13.188330,-38.778027,,,,,,
1478536461.82,-0.126524,0.396416,-0.658122,-1.347724,0.941657,-0.544424,-0.116401,-0.386115,-0.915077,0.038063,-0.222329,0.112312,15.663263,-12.309389,-38.960045,,,,,,
1478536461.83,-0.112341,0.381564,-0.665492,-1.507158,1.125358,-0.445578,-0.104043,-0.372372,-0.922233,0.029061,-0.180454,0.152824,15.663263,-12.309389,-38.960045,,,,,,
1478536461.84,-0.098152,0.366240,-0.670925,-1.485707,1.150075,-0.282567,-0.091496,-0.358107,-0.929187,0.029682,-0.035814,0.156146,16.588709,-11.005020,-38.967270,,,,,,
1478536461.85,-0.086526,0.352157,-0.674216,-1.304162,0.928599,-0.140071,-0.081114,-0.344923,-0.935119,0.029234,0.049742,0.140075,16.588709,-11.005020,-38.967270,,,,,,
1478536461.86,-0.078655,0.341079,-0.676646,-0.977572,0.573123,-0.134262,-0.074048,-0.334505,-0.939481,0.055096,0.038743,0.105389,17.525717,-9.745822,-38.892315,,,,,,
1478536461.87,-0.074477,0.334711,-0.678943,-0.493546,0.263445,-0.167425,-0.070279,-0.328496,-0.941887,0.071225,0.002233,0.035515,17.525717,-9.745822,-38.892315,,,,,,
1478536461.88,-0.073243,0.333652,-0.681258,0.009294,-0.033619,-0.216474,-0.069142,-0.327495,-0.942320,0.046910,-0.007115,-0.039873,17.960752,-9.001883,-38.873142,,,,,,
1478536461.89,-0.075031,0.337139,-0.684477,0.392129,-0.341815,-0.350466,-0.070741,-0.330788,-0.941050,0.035142,0.013634,-0.105367,17.960752,-9.001883,-38.873142,,,,,,
1478536461.90,-0.078681,0.342777,-0.689322,0.516241,-0.539995,-0.517033,-0.074027,-0.336104,-0.938911,0.024070,0.012938,-0.138191,17.916744,-8.984131,-38.897552,,,,,,
1478536461.91,-0.082115,0.347947,-0.695814,0.404721,-0.517330,-0.644123,-0.077107,-0.340968,-0.936907,0.008519,-0.001302,-0.145094,17.916744,-8.984131,-38.897552,,,,,,
1478536461.92,-0.083080,0.351062,-0.702958,0.181131,-0.237877,-0.653295,-0.077923,-0.343895,-0.935769,-0.012867,-0.026695,-0.114814,17.596844,-9.167048,-39.000774,,,,,,
1478536461.93,-0.080546,0.350939,-0.709548,-0.147763,0.106838,-0.558388,-0.075555,-0.343780,-0.936006,0.062402,-0.004456,0.108583,17.527328,-9.144606,-39.037327,,,,,,
1478536461.94,-0.075633,0.347224,-0.715014,-0.468071,0.344935,-0.425989,-0.071051,-0.340289,-0.937633,0.114783,-0.000761,0.129100,17.593695,-9.011940,-39.038322,,,,,,
1478536461.95,-0.069178,0.340551,-0.719049,-0.714545,0.522707,-0.273110,-0.065154,-0.334007,-0.940316,0.108885,-0.007042,0.131783,17.593695,-9.011940,-39.038322,,,,,,
1478536461.97,-0.062369,0.332154,-0.721156,-0.831162,0.592195,-0.091998,-0.058921,-0.326080,-0.943504,0.133583,-0.023728,0.129112,17.593695,-9.011940,-39.038322,,,,,,
1478536461.98,-0.056372,0.323459,-0.721050,-0.810385,0.556034,0.103918,-0.053420,-0.317849,-0.946635,0.149077,-0.025596,0.107433,18.232664,-8.079398,-38.949165,,,,,,
1478536461.99,-0.052147,0.316261,-0.719343,-0.616908,0.407861,0.214688,-0.049538,-0.311015,-0.949113,0.141991,-0.016606,0.049851,18.232664,-8.079398,-38.949165,,,,,,
1478536462.00,-0.050027,0.312315,-0.717302,-0.264145,0.227183,0.188490,-0.047587,-0.307262,-0.950434,0.117396,0.000012,-0.020620,18.632401,-7.514215,-38.873055,,,,,,
1478536462.01,-0.046967,0.311143,-0.716503,-0.103317,0.301199,0.032576,-0.044695,-0.306147,-0.950934,0.110324,0.008433,-0.085351,18.632401,-7.514215,-38.873055,,,,,,
1478536462.02,-0.050341,0.309425,-0.718081,-0.183663,-0.623691,-0.185997,-0.047930,-0.304511,-0.951302,0.104602,-0.001626,-0.122749,18.845625,-7.376206,-38.796623,,,,,,
1478536462.03,-0.058761,0.308581,-0.722021,-0.058775,-0.915378,-0.408617,-0.055953,-0.303707,-0.951121,0.111343,-0.007221,0.085215,18.845625,-7.376206,-38.796623,,,,,,
1478536462.04,-0.063882,0.309217,-0.728170,0.041499,-0.575507,-0.604234,-0.060811,-0.304312,-0.950629,0.121709,-0.106912,-0.175057,18.358133,-7.170705,-39.067940,,,,,,
1478536462.05,-0.065348,0.310432,-0.735736,0.085514,-0.288644,-0.713916,-0.062180,-0.305470,-0.950169,-0.022583,-0.135692,-0.162181,18.358133,-7.170705,-39.067940,,,,,,
1478536462.06,-0.063309,0.312237,-0.744000,0.131745,0.039828,-0.770304,-0.060208,-0.307189,-0.949742,-0.111271,-0.047807,-0.132182,18.029596,-6.972017,-39.256447,,,,,,
1478536462.07,-0.058399,0.314018,-0.752543,0.109517,0.262359,-0.778061,-0.055512,-0.308882,-0.949479,-0.113525,0.008528,-0.200759,18.029596,-6.972017,-39.256447,,,,,,
1478536462.08,-0.052625,0.315192,-0.760567,0.057280,0.320847,-0.712348,-0.050009,-0.309999,-0.949421,-0.089639,-0.005324,-0.189831,18.210941,-6.780309,-39.206287,,,,,,
1478536462.09,-0.046967,0.315524,-0.767612,-0.028577,0.330578,-0.608276,-0.044632,-0.310315,-0.949586,-0.035355,-0.030475,-0.171554,18.210941,-6.780309,-39.206287,,,,,,
1478536462.10,-0.042854,0.314107,-0.773271,-0.203757,0.165095,-0.468197,-0.040745,-0.308967,-0.950200,0.096867,0.021919,0.070301,18.571686,-6.545021,-39.076836,,,,,,
1478536462.11,-0.020556,0.313101,-0.784083,-0.393472,-0.205919,-0.307696,-0.019556,-0.308010,-0.951182,0.110696,0.012432,0.082576,18.698196,-6.381308,-39.043568,,,,,,
1478536462.12,-0.023877,0.307889,-0.786724,-0.530164,-0.442557,-0.207558,-0.022752,-0.303047,-0.952704,0.113893,0.007469,0.084097,18.698196,-6.381308,-39.043568,,,,,,
1478536462.13,-0.028704,0.302109,-0.788863,-0.553315,-0.532027,-0.173268,-0.027400,-0.297534,-0.954318,0.115077,-0.039303,0.052356,19.353827,-5.883159,-38.801567,,,,,,
1478536462.14,-0.033434,0.297021,-0.790957,-0.457695,-0.490584,-0.179946,-0.031964,-0.292673,-0.955678,0.119641,-0.044165,0.053716,19.353827,-5.883159,-38.801567,,,,,,
1478536462.15,-0.036669,0.293735,-0.793480,-0.269717,-0.331928,-0.235101,-0.035090,-0.289530,-0.956526,0.082591,-0.047491,-0.010866,18.953636,-5.384265,-39.070618,,,,,,
1478536462.16,-0.037490,0.292724,-0.796700,-0.049519,-0.106179,-0.304414,-0.035887,-0.288561,-0.956789,0.019819,-0.042753,-0.062224,18.953636,-5.384265,-39.070618,,,,,,
1478536462.18,-0.035344,0.293840,-0.800389,0.131142,0.164883,-0.349307,-0.033822,-0.289630,-0.956541,-0.032539,-0.028180,-0.082995,18.757599,-5.107908,-39.202114,,,,,,
1478536462.19,-0.031202,0.296101,-0.804423,0.221961,0.315315,-0.378744,-0.029840,-0.291793,-0.956016,-0.070227,-0.008424,-0.090356,18.757599,-5.107908,-39.202114,,,,,,
1478536462.20,-0.026287,0.298790,-0.808311,0.248078,0.364693,-0.349766,-0.025120,-0.294364,-0.955363,-0.094112,0.011543,-0.076864,18.954281,-5.088636,-39.109909,,,,,,
1478536462.21,-0.022408,0.301291,-0.811584,0.215347,0.220528,-0.288935,-0.021397,-0.296753,-0.954714,-0.078808,0.028611,-0.049848,18.954281,-5.088636,-39.109909,,,,,,
1478536462.22,-0.020423,0.302372,-0.814536,0.047426,0.074629,-0.265594,-0.019495,-0.297785,-0.954434,-0.025259,0.024607,0.005856,19.251049,-5.150664,-38.956535,,,,,,
1478536462.23,-0.019920,0.301099,-0.817219,-0.178616,-0.068017,-0.229655,-0.019023,-0.296570,-0.954822,0.022563,0.017105,0.077212,19.251049,-5.150664,-38.956535,,,,,,
1478536462.24,-0.021310,0.298052,-0.819308,-0.328660,-0.230201,-0.168987,-0.020369,-0.293659,-0.955693,0.045073,0.013980,0.161351,19.310207,-5.035082,-38.942368,,,,,,
1478536462.25,-0.024309,0.293693,-0.820962,-0.441091,-0.364724,-0.135225,-0.023266,-0.289489,-0.956899,0.054821,-0.001161,0.209661,19.310207,-5.035082,-38.942368,,,,,,
1478536462.26,-0.028926,0.288858,-0.822475,-0.463677,-0.519556,-0.121901,-0.027724,-0.284858,-0.958169,0.022643,0.018653,0.198693,19.112776,-4.677540,-39.084095,,,,,,
1478536462.27,-0.035276,0.284244,-0.823524,-0.428202,-0.663298,-0.062545,-0.033854,-0.280431,-0.959277,0.001459,0.027990,0.155444,18.921068,-4.461751,-39.202419,,,,,,
1478536462.28,-0.042711,0.280679,-0.823478,-0.301328,-0.710422,0.043104,-0.041028,-0.277008,-0.959991,0.006711,0.033935,0.109878,18.921068,-4.461751,-39.202419,,,,,,
1478536462.29,-0.050254,0.278595,-0.822562,-0.162505,-0.687860,0.106050,-0.048296,-0.275005,-0.960229,0.000231,0.047222,0.096826,18.370380,-4.126247,-39.499962,,,,,,
1478536462.30,-0.058037,0.277829,-0.821384,-0.032154,-0.714311,0.109605,-0.055780,-0.274269,-0.960034,-0.024237,0.071129,0.079266,18.370380,-4.126247,-39.499962,,,,,,
1478536462.31,-0.065845,0.278546,-0.820127,0.110499,-0.704790,0.109050,-0.063261,-0.274958,-0.959373,-0.073030,0.093775,0.057075,17.776958,-4.056392,-39.777752,,,,,,
1478536462.32,-0.073188,0.280370,-0.819184,0.192160,-0.663014,0.053107,-0.070267,-0.276711,-0.958381,-0.080016,0.104729,0.037574,17.776958,-4.056392,-39.777752,,,,,,
1478536462.33,-0.080341,0.282181,-0.819230,0.155774,-0.702070,-0.033837,-0.077081,-0.278451,-0.957352,-0.071113,0.076638,0.042817,17.188593,-4.197057,-40.021004,,,,,,
1478536462.34,-0.089043,0.283212,-0.818382,0.082673,-0.837484,0.132964,-0.085383,-0.279441,-0.956359,-0.090612,0.123008,0.177230,17.188593,-4.197057,-40.021004,,,,,,
1478536462.35,-0.099821,0.282839,-0.814406,-0.032189,-0.945871,0.437296,-0.095696,-0.279083,-0.955487,-0.048576,0.112548,0.223034,16.558714,-4.322346,-40.272449,,,,,,
1478536462.36,-0.112807,0.280863,-0.808098,-0.155433,-1.118987,0.639578,-0.108157,-0.277185,-0.954710,0.001315,0.096903,0.249143,16.151878,-4.384618,-40.430630,,,,,,
1478536462.38,-0.128634,0.277577,-0.800405,-0.245252,-1.367883,0.760222,-0.123369,-0.274026,-0.953776,0.048464,0.132272,0.268199,16.151878,-4.384618,-40.430630,,,,,,
1478536462.39,-0.147546,0.273351,-0.791571,-0.296941,-1.640200,0.898983,-0.141553,-0.269960,-0.952410,0.093655,0.167924,0.277590,15.076705,-4.452648,-40.836388,,,,,,
1478536462.40,-0.169677,0.268223,-0.779671,-0.312337,-1.846084,1.250548,-0.162826,-0.265019,-0.950396,0.142059,0.166950,0.279742,15.076705,-4.452648,-40.836388,,,,,,
1478536462.41,-0.194136,0.262608,-0.764242,-0.246391,-1.973194,1.557807,-0.186305,-0.259600,-0.947575,0.163203,0.138079,0.262577,13.524620,-4.496653,-41.371593,,,,,,
1478536462.42,-0.221661,0.258066,-0.746174,0.000309,-2.267747,1.760120,-0.212570,-0.255211,-0.943229,0.179459,0.169304,0.268241,13.524620,-4.496653,-41.371593,,,,,,
1478536462.43,-0.255116,0.256759,-0.725597,0.446463,-2.837520,1.892692,-0.244085,-0.253948,-0.935913,0.201132,0.219096,0.285614,11.565933,-4.766499,-41.931534,,,,,,
1478536462.44,-0.295152,0.259963,-0.703080,0.994770,-3.405640,1.902840,-0.281111,-0.257045,-0.924610,0.211379,0.223888,0.258106,11.565933,-4.766499,-41.931534,,,,,,
1478536462.45,-0.342884,0.266937,-0.679400,1.390572,-4.160830,1.844035,-0.324297,-0.263778,-0.908434,0.217058,0.239486,0.215410,8.720337,-5.697465,-42.499866,,,,,,
1478536462.46,-0.400616,0.273575,-0.654886,1.374034,-5.121005,1.894345,-0.375483,-0.270176,-0.886577,0.227640,0.263553,0.171687,8.720337,-5.697465,-42.499866,,,,,,
1478536462.47,-0.468426,0.274441,-0.628068,0.995250,-5.920899,2.327959,-0.434586,-0.271009,-0.858888,0.241242,0.268674,0.222932,4.503572,-7.181117,-42.928936,,,,,,
1478536462.48,-0.539855,0.265794,-0.598187,0.485241,-6.010896,2.953738,-0.495961,-0.262676,-0.827662,0.322103,0.205700,0.284464,4.503572,-7.181117,-42.928936,,,,,,
1478536462.49,-0.608158,0.248082,-0.565233,0.165202,-5.585900,3.650834,-0.553864,-0.245545,-0.795576,0.383927,0.203415,0.347716,-1.234465,-8.034247,-42.996174,,,,,,
1478536462.50,-0.673668,0.222798,-0.529377,0.044317,-5.410891,4.218889,-0.608437,-0.220960,-0.762221,0.439049,0.328641,0.420028,-1.234465,-8.034247,-42.996174,,,,,,
1478536462.51,-0.740142,0.193143,-0.491246,0.225365,-5.681584,4.623442,-0.661853,-0.191945,-0.724643,0.431919,0.219349,0.215747,-6.879383,-7.830123,-42.498322,,,,,,
1478536462.52,-0.811719,0.161480,-0.450267,0.651709,-6.273861,4.916774,-0.716033,-0.160779,-0.679299,0.424132,0.184506,0.070183,-6.879383,-7.830123,-42.498322,,,,,,
1478536462.53,-0.888946,0.128014,-0.406892,1.060603,-6.902693,5.133204,-0.770055,-0.127664,-0.625073,0.387029,0.151102,-0.073687,-12.774235,-7.167654,-41.233330,,,,,,
1478536462.54,-0.969547,0.091251,-0.363634,1.198192,-7.290279,5.291360,-0.821199,-0.091125,-0.563320,0.326051,0.141662,-0.139530,-16.036949,-6.811425,-40.139313,,,,,,
1478536462.55,-1.048973,0.048457,-0.323610,0.971903,-7.236852,5.538614,-0.865894,-0.048438,-0.497877,0.281086,0.158988,-0.102221,-16.036949,-6.811425,-40.139313,,,,,,
1478536462.56,-1.121728,-0.001194,-0.289732,0.539990,-6.669583,5.715337,-0.900851,0.001194,-0.434127,0.167865,0.162029,-0.015779,-22.637188,-5.532865,-37.036316,,,,,,
1478536462.57,-1.182415,-0.054073,-0.263373,0.159280,-5.517891,5.548131,-0.924170,0.054047,-0.378138,-0.017587,0.146225,0.010538,-22.637188,-5.532865,-37.036316,,,,,,
1478536462.59,-1.227506,-0.104662,-0.244319,-0.073016,-4.070020,4.975790,-0.936500,0.104471,-0.334745,-0.230050,0.098150,-0.004595,-27.863092,-2.850792,-33.619415,,,,,,
1478536462.60,-1.259353,-0.148314,-0.229438,0.048682,-2.966820,4.175221,-0.941442,0.147771,-0.303069,-0.397486,0.128886,-0.037980,-27.863092,-2.850792,-33.619415,,,,,,
1478536462.61,-1.282290,-0.183587,-0.215045,0.392412,-2.239016,3.467592,-0.942560,0.182558,-0.279739,-0.517203,0.198958,-0.140778,-30.610001,0.099360,-31.269184,,,,,,
1478536462.62,-1.298267,-0.216684,-0.198720,0.641562,-1.714300,3.454973,-0.940572,0.214993,-0.262874,-0.588069,0.272602,-0.250203,-30.610001,0.099360,-31.269184,,,,,,
1478536462.63,-1.308830,-0.248760,-0.181962,0.691495,-1.247810,3.312909,-0.936151,0.246202,-0.251009,-0.579581,0.268095,-0.311110,-31.887848,2.135435,-29.888947,,,,,,
1478536462.64,-1.316017,-0.282649,-0.165821,0.589410,-1.101999,3.545680,-0.929320,0.278900,-0.242031,-0.442323,-0.136658,-0.319782,-31.887848,2.135435,-29.888947,,,,,,
1478536462.65,-1.323536,-0.317697,-0.148462,0.756267,-1.241567,3.643655,-0.921066,0.312380,-0.232500,-0.567185,-0.097567,-0.249082,-32.428513,4.050552,-29.098598,,,,,,
1478536462.66,-1.333146,-0.353220,-0.127612,1.103064,-1.720369,3.769578,-0.911893,0.345921,-0.220886,-0.471332,-0.382634,-0.236329,-32.428513,4.050552,-29.098598,,,,,,
1478536462.67,-1.349275,-0.390003,-0.100703,1.679871,-2.756449,4.005118,-0.902307,0.380191,-0.203215,-0.302588,-0.078128,-0.202623,-32.871452,6.058802,-28.240088,,,,,,
1478536462.68,-1.374147,-0.424970,-0.066929,2.363308,-3.916393,3.756160,-0.893492,0.412294,-0.178005,-0.185640,-0.122834,-0.271519,-33.322342,6.986177,-27.487431,,,,,,
1478536462.69,-1.405190,-0.453747,-0.027488,2.991574,-4.747341,3.170936,-0.886514,0.438336,-0.148169,-0.126624,0.063632,-0.273126,-33.322342,6.986177,-27.487431,,,,,,
1478536462.70,-1.440566,-0.480584,0.017990,3.598252,-5.492691,3.122368,-0.879216,0.462297,-0.115152,-0.196986,0.513014,-0.257269,-35.004715,8.165514,-24.954727,,,,,,
1478536462.71,-1.477124,-0.510395,0.070635,4.205148,-5.943651,3.358277,-0.868726,0.488522,-0.081615,-0.230959,0.447849,-0.327336,-35.004715,8.165514,-24.954727,,,,,,
1478536462.72,-1.511231,-0.541023,0.127519,4.486509,-5.929445,3.195302,-0.855662,0.515014,-0.051028,-0.170278,0.036515,-0.329603,-37.157528,8.769691,-21.381172,,,,,,
1478536462.73,-1.541347,-0.569360,0.183476,4.336136,-5.558397,2.790723,-0.841881,0.539093,-0.024800,-0.286171,-0.085480,-0.215480,-37.157528,8.769691,-21.381172,,,,,,
1478536462.74,-1.566411,-0.595168,0.234704,3.912705,-4.876582,2.440731,-0.828047,0.560648,-0.003631,-0.464999,0.051718,-0.031128,-38.951653,9.424247,-17.569750,,,,,,
1478536462.75,-1.585752,-0.618941,0.280375,3.475018,-4.142447,2.181635,-0.814402,0.580173,0.012181,-0.536931,0.167645,0.135128,-38.951653,9.424247,-17.569750,,,,,,
1478536462.76,-1.600107,-0.641453,0.321314,3.111641,-3.506654,2.051596,-0.800883,0.598361,0.023481,-0.556768,0.166532,0.217516,-40.042252,10.125362,-14.451270,,,,,,
1478536462.77,-1.608858,-0.664999,0.359903,2.963699,-2.912567,2.180474,-0.786347,0.617059,0.029944,-0.576522,0.096671,0.222650,-40.042252,10.125362,-14.451270,,,,,,
1478536462.79,-1.612014,-0.690189,0.398416,2.954065,-2.527842,2.305071,-0.770471,0.636683,0.031775,-0.572562,0.053152,0.173822,-40.518883,11.044268,-12.287715,,,,,,
1478536462.80,-1.612888,-0.715842,0.439045,3.092731,-2.635865,2.308896,-0.753872,0.656253,0.031751,-0.491825,-0.026630,0.125095,-40.518883,11.044268,-12.287715,,,,,,
1478536462.81,-1.613142,-0.740571,0.483692,3.326306,-2.922628,2.166255,-0.737422,0.674710,0.031245,-0.450719,-0.002087,0.051518,-40.584129,12.277309,-10.813876,,,,,,
1478536462.82,-1.612219,-0.761610,0.531560,3.400022,-3.032239,1.727646,-0.723105,0.690087,0.029970,-0.470468,0.012717,-0.005266,-40.584129,12.277309,-10.813876,,,,,,
1478536462.83,-1.635169,-0.776208,0.546072,-0.330043,-3.240450,1.317961,-0.712097,0.700579,0.045903,-0.517258,0.022291,-0.012913,-40.653004,13.314974,-9.208077,,,,,,
1478536462.84,-1.687433,-0.794693,0.501821,-3.032093,-1.422027,2.252722,-0.695745,0.713648,0.081520,-0.524196,0.082097,0.019829,-40.747444,13.789595,-8.014789,,,,,,
1478536462.85,-1.717854,-0.817318,0.467582,-1.465034,-0.360248,2.405822,-0.676795,0.729314,0.100251,0.150977,-0.539708,3.398513,-40.747444,13.789595,-8.014789,,,,,,
1478536462.86,-1.727336,-0.841690,0.455204,-0.306664,0.080523,2.584355,-0.658058,0.745770,0.103862,-0.203560,-0.145459,-0.034862,-40.239983,16.036148,-6.191084,,,,,,
1478536462.87,-1.726886,-0.865903,0.447511,0.001120,0.611520,2.018119,-0.640075,0.761681,0.100728,-0.328583,0.171562,-0.751043,-40.239983,16.036148,-6.191084,,,,,,
1478536462.88,-1.726154,-0.875616,0.447796,0.185175,-0.104705,0.567254,-0.632810,0.767938,0.099111,0.627530,0.318106,0.242976,-39.349331,18.064943,-6.327085,,,,,,
1478536462.89,-1.725073,-0.874167,0.453578,0.402584,-0.388495,-0.375318,-0.634015,0.767009,0.098597,-0.525882,0.281285,-0.194239,-39.349331,18.064943,-6.327085,,,,,,
1478536462.90,-1.723040,-0.872016,0.466108,0.840207,-0.849685,-0.220173,-0.635843,0.765628,0.097558,-0.319525,0.191541,0.113608,-39.229599,18.329493,-6.309690,,,,,,
1478536462.91,-1.721499,-0.875843,0.483113,1.135309,-1.139588,0.343338,-0.633091,0.768084,0.096138,-0.024868,0.062101,-0.053749,-39.229599,18.329493,-6.309690,,,,,,
1478536462.92,-1.724209,-0.886351,0.495104,0.723149,-1.141960,1.059809,-0.624818,0.774770,0.096614,0.204973,-0.211095,-0.185024,-39.368473,18.165747,-5.905332,,,,,,
1478536462.93,-1.733506,-0.903621,0.498983,0.463793,-1.142037,1.760050,-0.610597,0.785572,0.100236,0.098649,-0.118245,-0.193803,-39.368473,18.165747,-5.905332,,,,,,
1478536462.94,-1.740891,-0.927929,0.501525,0.552600,-0.816797,2.407089,-0.590841,0.800380,0.101479,0.089804,-0.151775,0.147803,-39.021576,19.101124,-5.216085,,,,,,
1478536462.95,-1.747281,-0.957043,0.503667,0.610928,-0.791135,2.776660,-0.566994,0.817492,0.101118,0.094780,-0.083331,0.058840,-39.021576,19.101124,-5.216085,,,,,,
1478536462.96,-1.753081,-0.987162,0.508730,0.856518,-0.998149,2.717472,-0.541930,0.834466,0.099894,0.045791,-0.153283,-0.072505,-38.061169,21.054047,-4.776853,,,,,,
1478536462.97,-1.752929,-1.012452,0.523009,1.245150,-1.180642,2.055293,-0.521020,0.848134,0.095958,-0.052329,-0.228169,-0.046504,-38.061169,21.054047,-4.776853,,,,,,
1478536462.98,-1.750355,-1.032527,0.543406,1.325704,-1.489250,1.609104,-0.504409,0.858597,0.091557,-0.117158,-0.229645,-0.034352,-37.003616,22.935524,-4.408845,,,,,,
1478536463.00,-1.750619,-1.048967,0.558869,0.892457,-1.108679,1.338870,-0.490430,0.866909,0.089153,-0.085559,-0.059047,-0.092159,-36.653015,23.531878,-4.189409,,,,,,
1478536463.01,-1.745989,-1.062552,0.567038,0.520535,0.052740,1.197381,-0.479195,0.873600,0.084821,0.158653,-0.161396,0.005282,-36.653015,23.531878,-4.189409,,,,,,
1478536463.02,-1.739879,-1.076611,0.570480,0.370936,0.269686,1.320337,-0.467551,0.880355,0.079817,0.209982,-0.361602,0.108309,-36.059818,24.461275,-4.009935,,,,,,
1478536463.03,-1.735497,-1.092697,0.575266,0.490302,-0.052809,1.518830,-0.453866,0.887871,0.075436,0.187890,-0.432000,-0.034344,-36.059818,24.461275,-4.009935,,,,,,
1478536463.04,-1.732943,-1.110115,0.579850,0.448560,-0.172645,1.620820,-0.438727,0.895750,0.071768,0.114569,-0.167829,-0.146552,-35.321045,25.460865,-4.348786,,,,,,
1478536463.05,-1.731664,-1.127550,0.583565,0.407057,-0.195017,1.604654,-0.423337,0.903364,0.068695,-0.026111,-0.242232,-0.070465,-35.321045,25.460865,-4.348786,,,,,,
1478536463.06,-1.731989,-1.145550,0.584944,0.303137,-0.142177,1.716322,-0.407197,0.910937,0.066212,-0.088469,-0.330279,0.057507,-34.457169,26.599092,-4.464954,,,,,,
1478536463.07,-1.733156,-1.165620,0.583350,0.233043,0.098987,1.956530,-0.388997,0.919033,0.063718,-0.000820,-0.184124,0.025164,-34.457169,26.599092,-4.464954,,,,,,
1478536463.08,-1.734340,-1.187385,0.578929,0.160547,0.313727,2.102712,-0.369095,0.927394,0.060907,0.049209,-0.132014,-0.028162,-33.439632,27.847965,-4.585376,,,,,,
1478536463.09,-1.737666,-1.210174,0.572066,0.107997,0.270574,2.195893,-0.347956,0.935677,0.058608,0.088037,-0.086571,0.029313,-33.439632,27.847965,-4.585376,,,,,,
1478536463.10,-1.745549,-1.233269,0.560327,-0.045391,0.337258,2.244064,-0.326111,0.943577,0.057576,0.045044,-0.028583,0.038951,-32.135727,29.297047,-4.870528,,,,,,
1478536463.11,-1.757517,-1.256512,0.540936,-0.240700,0.710368,2.293816,-0.303763,0.951018,0.057387,-0.026788,-0.081908,0.052156,-32.135727,29.297047,-4.870528,,,,,,
1478536463.12,-1.773980,-1.279472,0.513884,-0.334924,0.931289,2.278914,-0.281313,0.957864,0.057958,-0.032683,-0.021356,0.068919,-30.662964,30.796373,-5.109796,,,,,,
1478536463.13,-1.788775,-1.301577,0.488694,-0.135845,0.832021,2.168177,-0.259685,0.963979,0.057520,-0.025913,0.124309,0.100302,-30.662964,30.796373,-5.109796,,,,,,
1478536463.14,-1.797703,-1.322997,0.477335,0.267590,-0.084183,1.998141,-0.238984,0.969454,0.055177,-0.063918,0.188627,0.067213,-29.077023,32.235130,-5.492454,,,,,,
1478536463.15,-1.814614,-1.342985,0.465061,0.105944,-0.524433,1.883047,-0.219167,0.974163,0.054521,-0.158794,0.292057,-0.099733,-29.077023,32.235130,-5.492454,,,,,,
1478536463.16,-1.840299,-1.360022,0.443892,-0.032887,-0.433965,1.615828,-0.201665,0.977869,0.055705,-0.230143,0.411428,-0.331156,-27.726604,33.396816,-5.534599,,,,,,
1478536463.17,-1.870785,-1.374577,0.416712,-0.138557,-0.368652,1.421872,-0.186255,0.980811,0.057613,-0.014398,0.329431,0.061588,-27.160385,33.881840,-5.392415,,,,,,
1478536463.18,-1.904899,-1.386336,0.384114,-0.221937,-0.120976,1.176102,-0.173274,0.983035,0.060146,-0.044561,0.258267,0.062977,-27.160385,33.881840,-5.392415,,,,,,
1478536463.20,-1.929401,-1.395085,0.357871,-0.111335,0.176768,0.851342,-0.163688,0.984603,0.061352,-0.079369,0.282640,0.111988,-26.211468,34.662968,-5.116777,,,,,,
1478536463.21,-1.929707,-1.395145,0.357478,0.063871,-0.105058,-0.499055,-0.163614,0.984613,0.061381,-0.143072,0.237265,0.043050,-26.211468,34.662968,-5.116777,,,,,,
1478536463.22,-1.850364,-1.370316,0.447732,1.141542,-1.122418,-3.721332,-0.191409,0.979971,0.054951,-0.106748,0.304605,-0.128666,-25.859682,34.928486,-5.101137,,,,,,
1478536463.23,-1.761438,-1.325220,0.553546,0.806354,-1.577951,-4.345199,-0.238711,0.969997,0.046068,-0.998930,0.210957,-0.313447,-25.859682,34.928486,-5.101137,,,,,,
1478536463.24,-1.792532,-1.305392,0.544181,-0.936825,-1.709260,-1.180595,-0.255878,0.964986,0.057686,-2.358243,-0.885748,-0.978599,-28.622705,32.694656,-5.152088,,,,,,
1478536463.25,-1.780605,-1.289748,0.556400,0.406750,0.375542,-1.659990,-0.271281,0.960765,0.057767,1.255610,0.044759,0.548815,-28.622705,32.694656,-5.152088,,,,,,
1478536463.26,-1.741718,-1.274031,0.592258,0.597398,0.247943,-1.644046,-0.288167,0.956287,0.049739,3.120138,0.850384,0.980305,-29.850714,31.703716,-4.307336,,,,,,
1478536463.27,-1.728970,-1.256295,0.608473,0.058115,-0.340380,-1.774357,-0.305480,0.950951,0.048726,0.246642,-0.443688,-0.414815,-29.850714,31.703716,-4.307336,,,,,,
1478536463.28,-1.726024,-1.238591,0.615397,-0.035189,-0.340858,-1.638333,-0.322207,0.945325,0.050421,0.169253,-0.000868,-0.035651,-30.953453,30.579275,-4.640660,,,,,,
1478536463.29,-1.719931,-1.224253,0.626038,0.167764,-0.390599,-1.315686,-0.335879,0.940552,0.050466,-0.004652,0.233672,0.159419,-30.953453,30.579275,-4.640660,,,,,,
1478536463.30,-1.717717,-1.213197,0.633641,0.024973,-0.483104,-1.008346,-0.346255,0.936740,0.051241,0.063632,0.086545,0.015287,-31.966116,29.552284,-4.424240,,,,,,
1478536463.31,-1.727254,-1.204266,0.628167,-0.417761,-0.379142,-0.749125,-0.354001,0.933576,0.055843,0.204725,0.044848,-0.077037,-31.966116,29.552284,-4.424240,,,,,,
1478536463.32,-1.742985,-1.197288,0.613660,-0.644138,-0.177232,-0.511738,-0.359488,0.931053,0.062519,0.098029,0.089608,0.019879,-32.586521,28.920782,-4.055968,,,,,,
1478536463.33,-1.763881,-1.193111,0.596763,-0.633121,-0.655917,-0.200564,-0.361917,0.929521,0.070762,-0.111853,0.070311,0.111183,-32.768921,28.748707,-3.801783,,,,,,
1478536463.34,-1.792089,-1.193288,0.579094,-0.610781,-1.246060,0.283131,-0.359617,0.929586,0.080905,0.066465,-0.148321,-0.089923,-32.768921,28.748707,-3.801783,,,,,,
1478536463.35,-1.830071,-1.200975,0.552223,-0.753060,-1.176527,1.170308,-0.349368,0.932392,0.092668,0.147509,-0.282154,-0.080919,-32.866936,28.745361,-2.865744,,,,,,
1478536463.36,-1.856672,-1.215375,0.532346,-0.073498,-0.564553,1.527913,-0.333863,0.937500,0.098131,0.251129,-0.536911,0.181776,-32.866936,28.745361,-2.865744,,,,,,
1478536463.37,-1.860879,-1.230231,0.528081,0.344041,0.171763,1.327731,-0.320064,0.942566,0.095540,0.174770,-0.611862,0.050624,-32.170280,29.602482,-1.873461,,,,,,
1478536463.38,-1.851122,-1.242735,0.531289,0.458671,0.728871,1.045256,-0.309631,0.946669,0.089145,-0.227570,-0.316008,-0.280353,-32.170280,29.602482,-1.873461,,,,,,
1478536463.39,-1.845814,-1.252096,0.531513,0.104669,0.304958,0.762764,-0.301558,0.949643,0.085090,-0.303194,-0.407972,-0.036506,-31.365093,30.425026,-2.300609,,,,,,
1478536463.41,-1.844323,-1.258084,0.538827,0.552869,-0.697248,0.412084,-0.296204,0.951503,0.083102,0.005051,-0.643794,0.073163,-31.365093,30.425026,-2.300609,,,,,,
1478536463.42,-1.830152,-1.264604,0.568945,1.091299,-1.576694,0.378286,-0.291349,0.953488,0.077304,0.158780,-0.750302,0.282117,-30.933506,30.849176,-2.488091,,,,,,
1478536463.43,-1.809750,-1.271537,0.608269,1.300824,-1.562797,0.346736,-0.286435,0.955555,0.069778,0.335157,-0.463932,-0.358749,-30.933506,30.849176,-2.488091,,,,,,
1478536463.44,-1.776115,-1.278745,0.657765,1.544226,-1.233952,0.386398,-0.281870,0.957655,0.058700,0.209757,-0.321669,-0.206039,-30.769909,31.031034,-2.243143,,,,,,
1478536463.45,-1.732562,-1.283075,0.711959,1.475120,-0.632248,-0.035619,-0.280064,0.958893,0.045704,0.062901,-0.196182,0.099239,-30.769909,31.031034,-2.243143,,,,,,
1478536463.46,-1.694032,-1.277602,0.751830,0.840247,0.187823,-0.798179,-0.286820,0.957325,0.035526,0.050355,-0.085591,0.058788,-30.657352,31.118649,-2.549596,,,,,,
1478536463.47,-1.673127,-1.271557,0.776477,0.579854,-0.457744,-0.542071,-0.293252,0.955561,0.030114,-0.276237,-0.259775,-0.027047,-30.657352,31.118649,-2.549596,,,,,,
1478536463.48,-1.664090,-1.272715,0.793360,0.420950,-0.650196,0.311269,-0.292409,0.955902,0.027359,-0.658534,-0.194275,-0.203217,-31.092110,30.643288,-3.002214,,,,,,
1478536463.49,-1.661458,-1.282608,0.798886,0.194766,-0.118808,1.070473,-0.283048,0.958760,0.025732,-0.162935,0.573008,-0.165121,-31.092728,30.649036,-2.936483,,,,,,
1478536463.50,-1.655439,-1.294371,0.802416,0.196799,0.356076,1.071070,-0.271941,0.962037,0.023073,0.104659,1.294783,0.252241,-31.092728,30.649036,-2.936483,,,,,,
1478536463.51,-1.643664,-1.300444,0.809768,0.259969,0.394844,0.335456,-0.266362,0.963677,0.019444,0.140492,1.382560,0.074566,-30.431816,31.292141,-3.074154,,,,,,
1478536463.52,-1.632605,-1.300696,0.818581,0.187454,0.263842,-0.017825,-0.266319,0.963744,0.016482,-0.040505,1.097322,-0.086108,-30.431816,31.292141,-3.074154,,,,,,
1478536463.53,-1.624495,-1.302444,0.822763,0.120651,0.422063,0.234868,-0.264761,0.964209,0.014231,-0.255640,0.197046,0.000509,-30.220240,31.458050,-3.445613,,,,,,
1478536463.54,-1.608762,-1.308183,0.831822,0.288613,0.761002,0.635075,-0.259418,0.965715,0.009854,-0.019680,0.029174,0.102421,-30.220240,31.458050,-3.445613,,,,,,
1478536463.55,-1.589871,-1.316213,0.842038,0.244965,0.854941,0.755504,-0.251796,0.967768,0.004804,0.040310,-0.191645,0.132480,-29.949064,31.663624,-3.900289,,,,,,
1478536463.56,-1.575966,-1.322349,0.848581,0.138121,0.623843,0.515025,-0.245896,0.969295,0.001271,-0.097915,-0.244854,0.202998,-29.949064,31.663624,-3.900289,,,,,,
1478536463.57,-1.570293,-1.325330,0.850308,0.000281,0.311670,0.192046,-0.243008,0.970024,-0.000122,-0.075199,-0.016686,0.161163,-29.430740,32.062263,-4.537241,,,,,,
1478536463.58,-1.572569,-1.325519,0.847916,-0.055447,-0.118600,-0.003860,-0.242825,0.970070,0.000430,0.075863,0.066170,-0.035495,-29.430740,32.062263,-4.537241,,,,,,
1478536463.59,-1.577962,-1.325761,0.845326,-0.065308,-0.282118,0.022061,-0.242585,0.970129,0.001738,0.138382,0.052027,-0.112532,-29.310368,32.156082,-4.651095,,,,,,
1478536463.60,-1.583487,-1.325654,0.841641,-0.091801,-0.152043,-0.023443,-0.242675,0.970103,0.003080,0.104384,0.020299,-0.082685,-29.310368,32.156082,-4.651095,,,,,,
1478536463.62,-1.594845,-1.324933,0.831518,-0.312894,-0.155395,-0.076863,-0.243323,0.969928,0.005853,-0.012368,-0.002368,0.036658,-29.327690,32.167290,-4.460491,,,,,,
1478536463.63,-1.611049,-1.323761,0.817143,-0.318826,-0.200996,-0.099482,-0.244332,0.969642,0.009840,-0.006797,-0.006324,0.049028,-29.356186,32.158344,-4.335798,,,,,,
1478536463.64,-1.621684,-1.322705,0.807356,-0.203557,-0.094093,-0.082452,-0.245237,0.969383,0.012490,-0.020327,0.029091,-0.023324,-29.356186,32.158344,-4.335798,,,,,,
1478536463.65,-1.628107,-1.321613,0.801444,-0.128027,-0.068682,-0.108772,-0.246207,0.969114,0.014126,0.032584,0.018587,0.067127,-29.434931,32.124474,-4.043155,,,,,,
1478536463.66,-1.640976,-1.320338,0.789589,-0.404244,-0.114890,-0.105848,-0.247238,0.968799,0.017380,0.047409,0.027966,-0.012375,-29.434931,32.124474,-4.043155,,,,,,
1478536463.67,-1.654735,-1.316918,0.771285,-0.403744,0.362906,-0.304007,-0.250276,0.967946,0.021057,0.162309,0.061534,0.052368,-29.510410,32.080475,-3.837001,,,,,,
1478536463.68,-1.664751,-1.316147,0.759709,-0.245730,0.120784,0.069071,-0.250795,0.967752,0.023633,-0.011137,-0.074304,-0.087766,-29.510410,32.080475,-3.837001,,,,,,
1478536463.69,-1.668808,-1.324850,0.752733,-0.026555,0.336745,1.154001,-0.242306,0.969907,0.023825,0.267987,-0.083692,0.070032,-29.605110,32.004585,-3.739989,,,,,,
1478536463.70,-1.671640,-1.341636,0.743934,-0.082466,0.573793,1.598074,-0.226006,0.973857,0.022869,0.283532,-0.606395,-0.026516,-29.605110,32.004585,-3.739989,,,,,,
1478536463.71,-1.680772,-1.350188,0.729515,-0.249427,0.453221,0.530684,-0.217501,0.975765,0.024017,0.491626,-1.410350,-0.001083,-28.739315,32.760315,-3.944310,,,,,,
1478536463.72,-1.681094,-1.347071,0.722424,-0.116269,0.675444,-0.497686,-0.220516,0.975078,0.024422,0.335262,-1.038432,-0.011726,-28.739315,32.760315,-3.944310,,,,,,
1478536463.73,-1.664065,-1.337446,0.732044,0.149900,0.784143,-1.023054,-0.230234,0.972897,0.021536,0.291528,-1.004712,0.044535,-28.498550,32.946640,-4.134668,,,,,,
1478536463.74,-1.644088,-1.330848,0.739378,0.087069,1.390737,-0.412388,-0.237014,0.971350,0.017402,0.284179,-1.177054,-0.019554,-28.498550,32.946640,-4.134668,,,,,,
1478536463.75,-1.634705,-1.340433,0.729119,-0.257617,1.905873,1.450414,-0.227865,0.973583,0.014582,0.194723,-0.719677,-0.002253,-28.946938,32.461681,-4.801890,,,,,,
1478536463.76,-1.633957,-1.366530,0.704633,-0.380987,2.584853,2.669757,-0.202444,0.979210,0.012804,0.083319,0.073387,0.131407,-28.946938,32.461681,-4.801890,,,,,,
1478536463.77,-1.632971,-1.394195,0.670485,-0.375708,3.396343,2.645096,-0.175345,0.984447,0.010916,0.248511,0.499928,0.176508,-27.520172,33.509502,-5.873448,,,,,,
1478536463.78,-1.620999,-1.419089,0.649724,-0.097881,2.947692,2.374596,-0.150936,0.988514,0.007584,0.317043,0.428188,0.181869,-26.354273,34.293751,-6.643421,,,,,,
1478536463.79,-1.624902,-1.447773,0.625987,-0.291665,1.385782,2.821291,-0.122534,0.992442,0.006636,-0.002420,0.697408,-0.127638,-26.354273,34.293751,-6.643421,,,,,,
1478536463.80,-1.660764,-1.475840,0.584049,-0.173514,0.445735,2.635274,-0.094430,0.995495,0.008519,-0.006430,0.112430,-0.353795,-24.091713,35.678524,-7.834294,,,,,,
1478536463.82,-1.661816,-1.501537,0.579371,0.315524,0.245843,2.346454,-0.068918,0.997603,0.006290,-0.035361,0.369249,-0.330982,-24.091713,35.678524,-7.834294,,,,,,
1478536463.83,-1.602829,-1.521545,0.643958,0.502192,-0.791259,1.695786,-0.049206,0.998787,0.001577,-0.103000,0.217521,-0.060872,-22.057892,36.927818,-8.033031,,,,,,
1478536463.84,-1.504491,-1.533926,0.757188,0.408825,-1.593707,1.028527,-0.036781,0.999320,-0.002442,-0.509576,0.624047,-0.319381,-22.057892,36.927818,-8.033031,,,,,,
1478536463.85,-1.380950,-1.539507,0.903401,0.398495,-2.353955,0.402229,-0.030722,0.999511,-0.005904,-0.577020,0.617830,-0.204744,-21.022972,37.541767,-7.962066,,,,,,
1478536463.86,-1.444607,-1.527123,0.870990,-0.076563,-3.220006,-1.932536,-0.043313,0.999046,-0.005495,-0.386466,0.439567,-0.165312,-21.022972,37.541767,-7.962066,,,,,,
1478536463.87,-1.429411,-1.497975,0.934720,0.940820,-4.782829,-2.705832,-0.072031,0.997350,-0.010253,0.006800,-0.114415,-0.141527,-21.662817,37.367783,-7.008207,,,,,,
1478536463.88,-1.380685,-1.478101,1.029828,1.100485,-4.236713,-1.367326,-0.090895,0.995707,-0.017491,0.804060,-1.995753,-0.639461,-21.662817,37.367783,-7.008207,,,,,,
1478536463.89,-1.356028,-1.469849,1.089157,0.432057,-2.968620,-0.444201,-0.098460,0.994909,-0.021477,0.491237,-0.491522,0.031945,-23.970520,36.188866,-5.524859,,,,,,
1478536463.90,-1.392118,-1.471293,1.074496,-0.248475,-1.653910,0.222860,-0.097758,0.995054,-0.017655,-0.283315,1.208926,0.405396,-23.970520,36.188866,-5.524859,,,,,,
1478536463.91,-1.422609,-1.473625,1.049823,-0.263318,-0.301541,0.129909,-0.095955,0.995283,-0.014324,-0.791176,1.504000,0.387478,-24.460369,36.018787,-4.368200,,,,,,
1478536463.92,-1.440957,-1.473509,1.033827,-0.090758,-0.272885,-0.064317,-0.096316,0.995271,-0.012576,-0.550229,0.770354,0.335880,-24.460369,36.018787,-4.368200,,,,,,
1478536463.93,-1.438645,-1.473938,1.040143,0.088804,-0.412866,0.091492,-0.095863,0.995313,-0.012743,-0.271462,0.101611,0.132112,-24.438623,36.075264,-4.009092,,,,,,
1478536463.94,-1.435585,-1.475635,1.046830,0.044325,-0.229713,0.190781,-0.094150,0.995476,-0.012808,-0.010967,-0.029152,0.026724,-24.438623,36.075264,-4.009092,,,,,,
1478536463.95,-1.379648,-1.476457,1.104681,0.683156,-0.335698,0.163772,-0.092484,0.995553,-0.017897,0.107880,0.067343,-0.024736,-24.386372,36.126976,-3.858830,,,,,,
1478536463.96,-1.267265,-1.476178,1.227270,1.160798,-1.037471,0.280630,-0.090159,0.995527,-0.028239,0.150965,0.058657,0.038798,-24.331472,36.147648,-4.008840,,,,,,
1478536463.97,-1.136290,-1.475942,1.367582,1.164139,-0.680515,0.480697,-0.085911,0.995505,-0.039870,0.174275,-0.284994,-0.076585,-24.331472,36.147648,-4.008840,,,,,,
1478536463.98,-1.006337,-1.475050,1.498168,1.053453,0.245182,0.468379,-0.080770,0.995420,-0.051142,0.215338,-0.386793,0.043375,-24.150742,36.220657,-4.421497,,,,,,
1478536463.99,-0.891320,-1.471229,1.605427,1.004180,0.909998,0.201342,-0.077326,0.995047,-0.062463,0.099375,-0.113730,0.130274,-24.150742,36.220657,-4.421497,,,,,,
1478536464.00,-0.824483,-1.463437,1.662227,0.877868,0.976822,-0.331438,-0.078671,0.994243,-0.072750,0.093991,-0.012248,0.011349,-23.812757,36.309010,-5.417778,,,,,,
1478536464.01,-0.821206,-1.453096,1.657388,0.518618,0.678775,-0.877365,-0.085954,0.993081,-0.080009,0.120851,-0.026788,-0.041207,-23.812757,36.309010,-5.417778,,,,,,
1478536464.03,-0.867649,-1.445254,1.604328,-0.115377,0.651106,-0.981714,-0.095514,0.992130,-0.080965,0.162652,0.042614,-0.086454,-24.064817,35.973873,-6.442737,,,,,,
1478536464.04,-0.928262,-1.437230,1.533279,-0.168909,0.952049,-1.216914,-0.106613,0.991093,-0.079799,-0.012589,0.452953,-0.030385,-24.064817,35.973873,-6.442737,,,,,,
1478536464.05,-0.971700,-1.425345,1.485037,0.225221,0.242581,-1.272835,-0.119697,0.989441,-0.081731,-0.214485,0.619477,-0.012614,-24.748407,35.445751,-6.771929,,,,,,
1478536464.06,-0.999969,-1.413187,1.456106,0.290759,-0.005335,-1.157323,-0.132072,0.987605,-0.084808,-0.147667,0.201253,0.013489,-24.748407,35.445751,-6.771929,,,,,,
1478536464.07,-1.016271,-1.402777,1.437755,0.288815,0.241282,-0.928488,-0.142171,0.985918,-0.088053,0.016164,0.225996,0.112010,-25.633114,34.756638,-7.047250,,,,,,
1478536464.08,-1.022937,-1.394488,1.427699,0.261975,0.308349,-0.689623,-0.149725,0.984498,-0.091357,-0.069925,0.278640,0.138385,-25.633114,34.756638,-7.047250,,,,,,
1478536464.09,-1.018769,-1.390140,1.429097,0.230212,0.252254,-0.221855,-0.152987,0.983726,-0.094225,-0.143781,0.187340,0.089418,-26.229855,34.237991,-7.382319,,,,,,
1478536464.10,-1.014004,-1.388679,1.433465,0.100287,-0.024526,-0.049808,-0.153756,0.983462,-0.095712,-0.123740,0.113583,0.041360,-26.229855,34.237991,-7.382319,,,,,,
1478536464.11,-1.015151,-1.388659,1.432572,-0.050083,-0.013409,-0.009241,-0.153882,0.983459,-0.095546,-0.038073,0.095261,-0.029134,-26.355980,34.092747,-7.602032,,,,,,
1478536464.12,-1.021512,-1.389024,1.425616,-0.130478,0.071760,-0.047406,-0.154181,0.983525,-0.094378,0.009909,-0.058964,-0.086393,-26.361500,34.091019,-7.590629,,,,,,
1478536464.13,-1.025793,-1.388401,1.418437,-0.038360,0.350083,-0.136626,-0.155107,0.983412,-0.094034,-0.099577,-0.036848,-0.074805,-26.361500,34.091019,-7.590629,,,,,,
1478536464.14,-1.018390,-1.386371,1.418470,0.134027,0.839870,-0.168161,-0.156106,0.983042,-0.096227,-0.157325,0.029654,-0.033488,-26.389893,34.065449,-7.606755,,,,,,
1478536464.15,-0.992702,-1.383302,1.430597,0.433210,1.429778,-0.103892,-0.156109,0.982474,-0.101853,-0.129001,-0.004767,0.023057,-26.389893,34.065449,-7.606755,,,,,,
1478536464.16,-0.963943,-1.381878,1.447797,0.258056,0.992763,0.119264,-0.154265,0.982208,-0.107098,0.035719,-0.002212,0.065212,-26.327835,33.946358,-8.320688,,,,,,
1478536464.17,-0.940148,-1.383153,1.469508,0.268584,0.001296,0.378990,-0.150661,0.982447,-0.109999,0.187862,0.036474,0.040205,-26.327835,33.946358,-8.320688,,,,,,
1478536464.18,-0.915290,-1.385087,1.496186,0.250735,-0.111881,0.441966,-0.146375,0.982805,-0.112552,0.284970,0.085890,-0.103848,-26.068562,33.999031,-8.901665,,,,,,
1478536464.19,-0.891786,-1.387936,1.520963,0.149465,-0.080789,0.495169,-0.141509,0.983328,-0.114202,0.201110,0.032420,0.044011,-26.068562,33.999031,-8.901665,,,,,,
1478536464.20,-0.866227,-1.391179,1.547502,0.166737,-0.029114,0.538699,-0.136114,0.983912,-0.115714,0.013800,0.062505,-0.016137,-25.762226,34.205662,-9.001358,,,,,,
1478536464.21,-0.835859,-1.394294,1.577976,0.196366,0.050021,0.561093,-0.130263,0.984464,-0.117738,-0.133302,0.196933,-0.017012,-25.762226,34.205662,-9.001358,,,,,,
1478536464.23,-0.805515,-1.396739,1.608029,0.204842,0.080389,0.485889,-0.124895,0.984890,-0.119969,-0.138700,0.181339,0.030842,-25.370621,34.465611,-9.121253,,,,,,
1478536464.24,-0.778221,-1.398445,1.634161,0.184951,0.172557,0.394515,-0.120395,0.985184,-0.122135,-0.074994,0.109817,0.037861,-25.370621,34.465611,-9.121253,,,,,,
1478536464.25,-0.752627,-1.399991,1.657484,0.147360,0.271708,0.342014,-0.116188,0.985448,-0.124064,-0.002373,0.043269,0.042827,-25.012653,34.672512,-9.323522,,,,,,
1478536464.26,-0.734046,-1.400837,1.673697,0.108367,0.238977,0.236529,-0.113305,0.985592,-0.125583,0.056420,-0.037761,0.034595,-25.012653,34.672512,-9.323522,,,,,,
1478536464.27,-0.722829,-1.401730,1.684037,0.017925,0.032546,0.161441,-0.111307,0.985742,-0.126186,0.124750,-0.103143,0.014553,-24.736252,34.807976,-9.553347,,,,,,
1478536464.28,-0.723420,-1.403319,1.685085,-0.139137,-0.208993,0.095796,-0.110344,0.986008,-0.124946,0.075371,-0.058244,-0.016152,-24.660398,34.850071,-9.595888,,,,,,
1478536464.29,-0.734853,-1.405391,1.677685,-0.249408,-0.455265,0.038265,-0.110396,0.986352,-0.122160,0.068586,-0.001092,-0.009783,-24.660398,34.850071,-9.595888,,,,,,
1478536464.30,-0.754353,-1.408269,1.664358,-0.375202,-0.655024,0.026330,-0.110812,0.986821,-0.117916,0.059787,0.069636,-0.017201,-24.657362,34.923271,-9.333998,,,,,,
1478536464.31,-0.782233,-1.411789,1.644357,-0.472442,-0.798988,0.017545,-0.111607,0.987385,-0.112316,0.036518,0.164272,-0.028752,-24.657362,34.923271,-9.333998,,,,,,
1478536464.32,-0.814551,-1.415223,1.619888,-0.494446,-0.749104,-0.047390,-0.112711,0.987923,-0.106324,-0.009878,0.220222,-0.017761,-24.770628,35.010662,-8.684081,,,,,,
1478536464.33,-0.852005,-1.417617,1.589299,-0.468659,-0.681280,-0.152412,-0.114833,0.988291,-0.100471,-0.048009,0.163671,0.037955,-24.770628,35.010662,-8.684081,,,,,,
1478536464.34,-0.880280,-1.418903,1.566999,-0.266620,-0.524786,-0.088362,-0.116647,0.988486,-0.096375,-0.014014,0.008538,0.054031,-24.954876,35.055698,-7.943301,,,,,,
1478536464.35,-0.891988,-1.419208,1.556835,-0.092953,-0.031603,-0.081915,-0.117533,0.988533,-0.094813,0.045374,-0.186424,0.067545,-24.954876,35.055698,-7.943301,,,,,,
1478536464.36,-0.896214,-1.418208,1.551039,0.010080,0.162357,-0.131534,-0.118705,0.988381,-0.094933,0.024497,-0.361351,0.113778,-25.084562,35.044083,-7.577672,,,,,,
1478536464.37,-0.899900,-1.417335,1.546368,-0.009021,0.044443,-0.094252,-0.119730,0.988248,-0.095031,-0.013937,-0.209287,0.047821,-25.084562,35.044083,-7.577672,,,,,,
1478536464.38,-0.908436,-1.417916,1.539441,-0.156989,-0.202177,0.008344,-0.120084,0.988337,-0.093652,0.036054,-0.039530,0.024118,-25.152058,34.982922,-7.636315,,,,,,
1478536464.39,-0.916379,-1.419497,1.533225,-0.144504,-0.176701,0.075549,-0.119584,0.988576,-0.091744,-0.011550,-0.020803,-0.018546,-25.152058,34.982922,-7.636315,,,,,,
1478536464.40,-0.919567,-1.420336,1.532307,-0.036777,-0.219157,0.054518,-0.119216,0.988702,-0.090860,-0.134904,0.026740,-0.018118,-25.161663,35.016823,-7.446927,,,,,,
1478536464.41,-0.921576,-1.421584,1.532322,-0.085004,-0.186525,0.109688,-0.118415,0.988889,-0.089874,-0.160195,-0.002911,-0.016464,-25.161663,35.016823,-7.446927,,,,,,
1478536464.42,-0.920253,-1.423013,1.536483,-0.003134,-0.295175,0.147045,-0.117172,0.989100,-0.089175,-0.119248,-0.052256,0.019076,-25.138107,35.066605,-7.290582,,,,,,
1478536464.44,-0.912609,-1.423085,1.548052,0.164333,-0.383935,0.087185,-0.116430,0.989110,-0.090025,-0.123743,-0.078863,-0.024279,-25.105366,35.107254,-7.207295,,,,,,
1478536464.45,-0.903196,-1.421542,1.562591,0.279021,-0.508532,-0.013304,-0.116776,0.988882,-0.092061,-0.072387,-0.026739,-0.017680,-25.105366,35.107254,-7.207295,,,,,,
1478536464.46,-0.890571,-1.419135,1.581867,0.376208,-0.636755,0.009887,-0.117454,0.988522,-0.095025,-0.007012,-0.010830,0.015175,-25.125938,35.109123,-7.126033,,,,,,
1478536464.47,-0.874850,-1.417456,1.605237,0.351923,-0.730566,0.117821,-0.117220,0.988266,-0.097923,0.047228,-0.040650,0.011131,-25.125938,35.109123,-7.126033,,,,,,
1478536464.48,-0.861315,-1.416521,1.627085,0.284067,-0.767022,0.139533,-0.116585,0.988123,-0.100103,0.058495,-0.029856,0.014486,-25.192980,35.077633,-7.043967,,,,,,
1478536464.49,-0.850163,-1.415856,1.646383,0.246010,-0.749889,0.133788,-0.115955,0.988021,-0.101830,-0.012707,-0.007552,-0.011131,-25.192980,35.077633,-7.043967,,,,,,
1478536464.50,-0.841285,-1.415130,1.663360,0.232145,-0.757144,0.104275,-0.115581,0.987909,-0.103334,-0.085011,-0.007074,-0.033767,-25.202320,35.110020,-6.846411,,,,,,
1478536464.51,-0.835995,-1.413761,1.677187,0.238855,-0.813219,0.013334,-0.116036,0.987695,-0.104851,-0.067573,0.009757,-0.046944,-25.202320,35.110020,-6.846411,,,,,,
1478536464.52,-0.836034,-1.411891,1.686347,0.211594,-0.879670,-0.044807,-0.117410,0.987401,-0.106084,-0.027533,0.023707,-0.061900,-25.254908,35.117439,-6.610528,,,,,,
1478536464.53,-0.838110,-1.410899,1.693671,0.121900,-0.869650,0.022410,-0.118359,0.987244,-0.106495,0.023998,0.055069,-0.063793,-25.254908,35.117439,-6.610528,,,,,,
1478536464.54,-0.841975,-1.410252,1.697522,0.077106,-0.671647,-0.025731,-0.119246,0.987140,-0.106463,0.020751,0.079388,-0.071806,-25.386909,35.082928,-6.279880,,,,,,
1478536464.55,-0.847501,-1.409248,1.697315,0.054900,-0.458574,-0.084839,-0.120576,0.986979,-0.106458,-0.064559,0.054906,-0.061038,-25.386909,35.082928,-6.279880,,,,,,
1478536464.56,-0.855224,-1.408298,1.693511,-0.001605,-0.359752,-0.111852,-0.122101,0.986826,-0.106138,-0.049468,0.061697,-0.014528,-25.496307,35.052010,-6.003259,,,,,,
1478536464.57,-0.865494,-1.407668,1.686543,-0.052581,-0.310559,-0.115871,-0.123659,0.986724,-0.105282,0.015230,0.065110,-0.001163,-25.559139,35.022472,-5.907681,,,,,,
1478536464.58,-0.877450,-1.407353,1.677177,-0.106320,-0.239128,-0.115424,-0.125147,0.986673,-0.103994,0.054590,0.058493,-0.009928,-25.559139,35.022472,-5.907681,,,,,,
1478536464.59,-0.889952,-1.407330,1.666390,-0.133579,-0.156525,-0.104947,-0.126455,0.986669,-0.102436,0.071218,0.048838,-0.002590,-25.679848,34.968231,-5.701935,,,,,,
1478536464.60,-0.902273,-1.407535,1.655052,-0.153078,-0.093686,-0.091572,-0.127549,0.986703,-0.100745,0.078400,0.038886,0.012091,-25.679848,34.968231,-5.701935,,,,,,
1478536464.61,-0.913884,-1.407901,1.643955,-0.157199,-0.054298,-0.072673,-0.128424,0.986762,-0.099037,0.082312,0.031793,0.010749,-25.770859,34.929935,-5.523233,,,,,,
1478536464.62,-0.924185,-1.408385,1.633793,-0.149932,-0.017305,-0.054796,-0.129056,0.986840,-0.097421,0.084745,0.020148,0.004175,-25.770859,34.929935,-5.523233,,,,,,
1478536464.64,-0.933129,-1.408940,1.624671,-0.140059,0.011034,-0.035509,-0.129482,0.986930,-0.095937,0.073590,0.007257,0.003072,-25.826038,34.910645,-5.385762,,,,,,
1478536464.65,-0.940437,-1.409482,1.617064,-0.119906,0.018511,-0.027985,-0.129748,0.987017,-0.094673,0.058886,0.000379,0.004066,-25.826038,34.910645,-5.385762,,,,,,
1478536464.66,-0.945966,-1.409716,1.611394,-0.065462,0.004032,-0.031861,-0.130082,0.987055,-0.093818,0.031418,-0.010050,-0.000771,-25.849998,34.906944,-5.294050,,,,,,
1478536464.67,-0.949038,-1.409657,1.608408,-0.018561,-0.014223,-0.033329,-0.130416,0.987045,-0.093452,0.024017,-0.023147,0.001838,-25.849998,34.906944,-5.294050,,,,,,
1478536464.68,-0.949124,-1.409211,1.608647,0.043559,-0.038614,-0.029568,-0.130783,0.986974,-0.093697,0.014923,-0.038762,0.008706,-25.873745,34.896049,-5.249671,,,,,,
1478536464.69,-0.946114,-1.408604,1.612239,0.091706,-0.052091,-0.010249,-0.130986,0.986876,-0.094441,0.001576,-0.040983,0.009587,-25.873745,34.896049,-5.249671,,,,,,
1478536464.70,-0.940116,-1.407787,1.618871,0.139703,-0.050634,-0.002222,-0.131069,0.986743,-0.095701,-0.008900,-0.071094,0.007658,-25.895535,34.877357,-5.266393,,,,,,
1478536464.71,-0.931195,-1.406674,1.628594,0.199259,-0.070134,0.006326,-0.131091,0.986562,-0.097521,-0.024366,-0.070012,0.003436,-25.895535,34.877357,-5.266393,,,,,,
1478536464.72,-0.919670,-1.405327,1.641247,0.246256,-0.097160,0.018499,-0.131015,0.986341,-0.099831,-0.028577,-0.067594,-0.000297,-25.901567,34.860256,-5.349327,,,,,,
1478536464.73,-0.906725,-1.403737,1.655691,0.281926,-0.130344,0.019574,-0.130946,0.986078,-0.102485,-0.026357,-0.062448,-0.002572,-25.901567,34.860256,-5.349327,,,,,,
1478536464.74,-0.892388,-1.401933,1.671746,0.312394,-0.146295,0.026415,-0.130848,0.985776,-0.105468,-0.021190,-0.049116,-0.006837,-25.900705,34.841114,-5.476710,,,,,,
1478536464.75,-0.877678,-1.400076,1.688271,0.317479,-0.148801,0.033890,-0.130691,0.985463,-0.108551,-0.017426,-0.029087,-0.002396,-25.899994,34.829987,-5.550351,,,,,,
1478536464.76,-0.863354,-1.398273,1.704371,0.307338,-0.143966,0.039794,-0.130473,0.985155,-0.111566,-0.003713,-0.004304,0.006403,-25.899994,34.829987,-5.550351,,,,,,
1478536464.77,-0.850246,-1.396669,1.719104,0.271866,-0.131859,0.045210,-0.130187,0.984878,-0.114309,0.005660,0.025376,0.022375,-25.892305,34.811604,-5.699525,,,,,,
1478536464.78,-0.839362,-1.395516,1.731522,0.212457,-0.126119,0.055293,-0.129780,0.984678,-0.116478,0.022556,0.044528,0.037575,-25.892305,34.811604,-5.699525,,,,,,
1478536464.79,-0.830769,-1.394781,1.741625,0.156911,-0.128983,0.061898,-0.129309,0.984549,-0.118077,0.025305,0.057840,0.049901,-25.872568,34.807251,-5.814606,,,,,,
1478536464.80,-0.824953,-1.394416,1.748945,0.100110,-0.134235,0.057487,-0.128883,0.984485,-0.119071,0.025307,0.066876,0.062445,-25.872568,34.807251,-5.814606,,,,,,
1478536464.81,-0.821424,-1.394285,1.753898,0.059603,-0.126928,0.042062,-0.128557,0.984462,-0.119612,0.015626,0.072041,0.065596,-25.845444,34.821831,-5.847829,,,,,,
1478536464.82,-0.819814,-1.394330,1.756724,0.022771,-0.106047,0.032592,-0.128332,0.984470,-0.119789,-0.013193,0.069943,0.056099,-25.845444,34.821831,-5.847829,,,,,,
1478536464.83,-0.819600,-1.394466,1.757903,-0.000171,-0.085052,0.019642,-0.128209,0.984494,-0.119725,-0.028102,0.062167,0.047002,-25.829988,34.838024,-5.819609,,,,,,
1478536464.85,-0.955293,-1.397227,1.625134,-0.011561,-0.083817,0.012092,-0.141006,0.984975,-0.099711,-0.020523,0.049648,0.015376,-25.829988,34.838024,-5.819609,,,,,,
1478536464.86,-0.956690,-1.397417,1.624730,-0.016482,-0.098668,0.009819,-0.140992,0.985007,-0.099406,-0.023925,0.030099,0.002543,-26.286045,34.625553,-4.985888,,,,,,
1478536464.87,-0.958419,-1.397526,1.624191,-0.009986,-0.119593,0.002907,-0.141076,0.985026,-0.099101,-0.028693,0.018544,-0.010809,-26.286045,34.625553,-4.985888,,,,,,
1478536464.88,-0.960287,-1.397655,1.623796,-0.010976,-0.149315,0.007074,-0.141157,0.985048,-0.098764,-0.022600,0.005232,-0.022635,-26.291693,34.631039,-4.917543,,,,,,
1478536464.89,-0.961825,-1.397686,1.624011,0.003114,-0.171453,0.002745,-0.141283,0.985054,-0.098529,-0.021482,-0.004097,-0.030331,-26.291693,34.631039,-4.917543,,,,,,
1478536464.90,-0.962937,-1.397591,1.624803,0.020892,-0.182438,-0.001719,-0.141470,0.985037,-0.098426,-0.018793,-0.011298,-0.030908,-26.303501,34.634586,-4.828568,,,,,,
1478536464.91,-0.963011,-1.397327,1.626648,0.041076,-0.179824,-0.003924,-0.141690,0.984992,-0.098564,-0.014666,-0.012412,-0.034310,-26.312595,34.633789,-4.784545,,,,,,
1478536464.92,-0.962783,-1.396949,1.628724,0.051081,-0.169798,-0.012535,-0.141974,0.984927,-0.098809,-0.011087,-0.008135,-0.037345,-26.312595,34.633789,-4.784545,,,,,,
1478536464.93,-0.962129,-1.396397,1.631120,0.064861,-0.158492,-0.023565,-0.142355,0.984831,-0.099212,-0.000620,-0.002531,-0.038376,-26.335089,34.625702,-4.718883,,,,,,
1478536464.94,-0.961127,-1.395746,1.633651,0.072246,-0.137401,-0.026267,-0.142781,0.984718,-0.099722,0.017323,0.002999,-0.037424,-26.335089,34.625702,-4.718883,,,,,,
1478536464.95,-0.960587,-1.395069,1.635495,0.058136,-0.116292,-0.046450,-0.143273,0.984600,-0.100181,0.033746,0.004719,-0.035729,-30.900330,38.652725,-10.080535,,,,,,
1478536464.96,-0.967642,-1.394543,1.629526,-0.102418,-0.110536,-0.110188,-0.144403,0.984508,-0.099462,0.052103,0.003469,-0.033793,-30.900330,38.652725,-10.080535,,,,,,
1478536464.97,-0.983039,-1.393748,1.614356,-0.186894,-0.007202,-0.251741,-0.146569,0.984368,-0.097661,0.064431,0.005622,-0.026210,-30.979050,38.608475,-10.008225,,,,,,
1478536464.98,-0.994341,-1.391959,1.602143,-0.007769,0.163115,-0.229954,-0.149139,0.984051,-0.096957,-0.011521,-0.003201,0.015994,-30.979050,38.608475,-10.008225,,,,,,
1478536464.99,-0.985692,-1.389579,1.604305,0.180375,0.742296,-0.146258,-0.150247,0.983625,-0.099537,-0.075812,-0.023222,0.041462,-31.162956,38.483921,-9.916574,,,,,,
1478536465.00,-0.974747,-1.388660,1.609080,0.084578,0.462070,0.018981,-0.149897,0.983459,-0.101683,0.024622,0.017762,-0.079637,-31.162956,38.483921,-9.916574,,,,,,
1478536465.01,-0.968038,-1.389141,1.616807,0.097542,-0.258598,0.138035,-0.148822,0.983546,-0.102418,0.104769,0.002981,-0.122207,-31.112246,38.390682,-10.424229,,,,,,
1478536465.02,-0.962029,-1.390036,1.629080,0.128949,-0.650958,0.200302,-0.147481,0.983707,-0.102807,0.276205,0.018475,-0.123923,-31.112246,38.390682,-10.424229,,,,,,
1478536465.03,-0.956072,-1.390834,1.642208,0.137588,-0.630962,0.181692,-0.146225,0.983850,-0.103231,0.217148,0.041555,-0.110728,-31.062120,38.466755,-10.292408,,,,,,
1478536465.05,-0.951813,-1.391459,1.651394,0.073469,-0.392194,0.125225,-0.145283,0.983962,-0.103496,0.072575,0.055055,-0.018101,-31.062120,38.466755,-10.292408,,,,,,
1478536465.06,-0.949887,-1.392113,1.655361,0.003977,-0.116456,0.080321,-0.144560,0.984079,-0.103401,-0.018618,0.045935,0.008003,-31.047905,38.549522,-10.022102,,,,,,
1478536465.07,-0.947824,-1.392723,1.656700,-0.020901,0.117336,0.055165,-0.143859,0.984187,-0.103349,-0.042497,0.005636,-0.002242,-31.031309,38.576847,-9.968208,,,,,,
1478536465.08,-0.945129,-1.393376,1.657359,-0.029325,0.211255,0.057138,-0.143059,0.984302,-0.103360,-0.017662,-0.000629,-0.021686,-31.031309,38.576847,-9.968208,,,,,,
1478536465.09,-0.943384,-1.394150,1.656891,-0.057028,0.201217,0.054454,-0.142262,0.984438,-0.103162,0.020970,0.007932,-0.010485,-30.955856,38.619511,-10.037371,,,,,,
1478536465.10,-0.943810,-1.394912,1.654824,-0.069082,0.134533,0.034556,-0.141698,0.984572,-0.102661,0.036442,0.013673,-0.002274,-30.955856,38.619511,-10.037371,,,,,,
1478536465.11,-0.944936,-1.395434,1.652625,-0.056075,0.090261,0.014642,-0.141397,0.984663,-0.102201,0.038476,0.020052,0.004301,-30.879414,38.662636,-10.106569,,,,,,
1478536465.12,-0.945475,-1.395624,1.651224,-0.019380,0.080749,-0.004291,-0.141300,0.984697,-0.102015,0.030429,0.016082,0.000117,-30.879414,38.662636,-10.106569,,,,,,
1478536465.13,-0.944918,-1.395470,1.650826,0.008287,0.092179,-0.020029,-0.141366,0.984670,-0.102183,0.022851,0.004802,-0.015631,-30.852325,38.678448,-10.128778,,,,,,
1478536465.14,-0.943460,-1.394982,1.651194,0.038428,0.108623,-0.041947,-0.141606,0.984584,-0.102670,0.016072,0.003529,-0.032187,-30.852325,38.678448,-10.128778,,,,,,
1478536465.15,-0.942135,-1.394284,1.651181,0.035669,0.132242,-0.058330,-0.142026,0.984462,-0.103262,0.011365,0.008473,-0.045221,-30.851780,38.658516,-10.206232,,,,,,
1478536465.16,-0.941475,-1.393653,1.650414,0.019220,0.135823,-0.054949,-0.142460,0.984351,-0.103722,0.014545,0.010873,-0.039070,-30.851780,38.658516,-10.206232,,,,,,
1478536465.17,-0.941809,-1.393236,1.648473,-0.011269,0.155401,-0.052041,-0.142826,0.984278,-0.103915,0.022724,0.016607,-0.013333,-30.868191,38.615967,-10.317106,,,,,,
1478536465.18,-0.943279,-1.393167,1.645317,-0.047834,0.151267,-0.027970,-0.143034,0.984265,-0.103745,0.023939,0.020648,0.003205,-30.868191,38.615967,-10.317106,,,,,,
1478536465.19,-0.945266,-1.393440,1.641916,-0.066486,0.121296,-0.006883,-0.143022,0.984314,-0.103303,0.023729,0.019791,0.009614,-30.870495,38.592087,-10.399218,,,,,,
1478536465.20,-0.947170,-1.393943,1.638913,-0.066214,0.093921,0.013206,-0.142816,0.984402,-0.102742,0.029871,0.015583,0.010365,-30.870495,38.592087,-10.399218,,,,,,
1478536465.21,-0.948487,-1.394422,1.636849,-0.051979,0.056868,0.017716,-0.142568,0.984486,-0.102279,0.027990,0.011562,0.001037,-30.846619,38.605354,-10.420811,,,,,,
1478536465.22,-0.949480,-1.394851,1.635582,-0.035154,0.012431,0.019936,-0.142326,0.984562,-0.101891,0.018379,0.011380,-0.019187,-30.846619,38.605354,-10.420811,,,,,,
1478536465.23,-0.950114,-1.395105,1.635115,-0.015891,-0.023271,0.014684,-0.142188,0.984606,-0.101656,0.013113,0.012464,-0.032515,-30.821199,38.628056,-10.411886,,,,,,
1478536465.24,-0.950431,-1.395217,1.635053,-0.004569,-0.019411,0.004971,-0.142130,0.984626,-0.101546,0.005823,0.012735,-0.035310,-30.816864,38.635181,-10.398269,,,,,,
1478536465.26,-0.950764,-1.395270,1.634731,-0.006076,0.006616,-0.002849,-0.142122,0.984635,-0.101469,0.000612,0.009765,-0.036043,-30.816864,38.635181,-10.398269,,,,,,
1478536465.27,-0.951218,-1.395331,1.634107,-0.015003,0.016427,0.000536,-0.142118,0.984645,-0.101369,-0.005877,0.004322,-0.027858,-30.816021,38.639671,-10.384079,,,,,,
1478536465.28,-0.952082,-1.395476,1.633127,-0.022468,0.004004,0.001864,-0.142090,0.984671,-0.101163,-0.008332,0.003107,-0.012835,-30.816021,38.639671,-10.384079,,,,,,
1478536465.29,-0.953147,-1.395646,1.632169,-0.022254,-0.019505,0.003490,-0.142061,0.984700,-0.100915,-0.002791,0.003428,-0.006934,-30.813091,38.643463,-10.378672,,,,,,
1478536465.30,-0.954332,-1.395744,1.631403,-0.013193,-0.044157,0.000358,-0.142101,0.984717,-0.100691,0.007702,0.004022,-0.010286,-30.813091,38.643463,-10.378672,,,,,,
1478536465.31,-0.955507,-1.395855,1.630741,-0.015660,-0.050377,0.002880,-0.142131,0.984737,-0.100461,0.012141,0.008305,-0.013263,-30.817091,38.648983,-10.346183,,,,,,
1478536465.32,-0.910107,-1.399206,1.675941,-0.013150,-0.049085,-0.002007,-0.134818,0.985315,-0.104782,0.010917,0.011359,-0.009048,-30.817091,38.648983,-10.346183,,,,,,
1478536465.33,-0.886034,-1.400870,1.700177,-0.015623,-0.054100,0.004177,-0.130987,0.985597,-0.106960,0.009054,0.010695,-0.007664,-30.528385,38.831833,-10.516037,,,,,,
1478536465.34,-0.873260,-1.402429,1.713372,-0.013047,-0.059064,0.007979,-0.128433,0.985860,-0.107638,0.008117,0.010463,-0.004454,-30.528385,38.831833,-10.516037,,,,,,
1478536465.35,-0.869276,-1.403932,1.717923,-0.024387,-0.061647,0.012765,-0.126871,0.986110,-0.107192,0.005975,0.009510,-0.000459,-30.276537,38.998272,-10.627644,,,,,,
1478536465.36,-0.872829,-1.405628,1.715088,-0.026856,-0.067856,0.014061,-0.125969,0.986391,-0.105665,0.003807,0.008376,0.005583,-30.276537,38.998272,-10.627644,,,,,,
1478536465.37,-0.874148,-1.405915,1.714467,-0.024328,-0.067852,0.015324,-0.125891,0.986438,-0.105317,-0.000268,0.007932,0.005601,-30.186991,39.097347,-10.517780,,,,,,
1478536465.38,-0.875332,-1.406154,1.714023,-0.017958,-0.073988,0.014293,-0.125835,0.986477,-0.105017,-0.001866,0.003178,0.001960,-30.186991,39.097347,-10.517780,,,,,,
1478536465.39,-0.876130,-1.406294,1.714087,-0.002719,-0.083741,0.008546,-0.125812,0.986500,-0.104828,-0.004101,0.001613,-0.004623,-30.190836,39.111073,-10.455511,,,,,,
1478536465.40,-0.876616,-1.406310,1.714465,0.006107,-0.082420,0.004972,-0.125851,0.986503,-0.104757,-0.004443,-0.001487,-0.014551,-30.195351,39.115387,-10.426306,,,,,,
1478536465.41,-0.870235,-1.404352,1.721654,0.011185,-0.084874,0.006312,-0.126657,0.986180,-0.106803,-0.004874,-0.003407,-0.013040,-30.195351,39.115387,-10.426306,,,,,,
1478536465.42,-0.869905,-1.404281,1.722846,0.018720,-0.079893,0.007563,-0.126675,0.986168,-0.106890,-0.003834,-0.001137,-0.016935,-30.238623,39.071602,-10.465006,,,,,,
1478536465.43,-0.869183,-1.404179,1.724456,0.027575,-0.081088,0.008938,-0.126675,0.986151,-0.107047,-0.002399,-0.000739,-0.019403,-30.238623,39.071602,-10.465006,,,,,,
1478536465.44,-0.868666,-1.404128,1.725800,0.013649,-0.077470,0.009902,-0.126658,0.986143,-0.107145,0.003047,0.003191,-0.018832,-30.249979,39.071774,-10.431478,,,,,,
1478536465.45,-0.868255,-1.404097,1.726982,0.014822,-0.067568,0.009752,-0.126637,0.986138,-0.107216,0.008671,0.009361,-0.015266,-30.249979,39.071774,-10.431478,,,,,,
1478536465.47,-0.868179,-1.404134,1.727715,0.005905,-0.058984,0.011931,-0.126601,0.986144,-0.107202,0.012542,0.012773,-0.009955,-30.258121,39.074192,-10.398745,,,,,,
1478536465.48,-0.868084,-1.404210,1.728322,0.001959,-0.041692,0.011582,-0.126534,0.986157,-0.107166,0.013893,0.013782,-0.006527,-30.258121,39.074192,-10.398745,,,,,,
1478536465.49,-0.860103,-1.405388,1.736477,-0.000758,-0.020672,0.009962,-0.124794,0.986351,-0.107415,0.010262,0.006813,-0.002449,-30.261086,39.080135,-10.367754,,,,,,
1478536465.50,-0.853757,-1.405877,1.742852,0.005404,-0.004505,0.003647,-0.123746,0.986432,-0.107887,0.006619,0.008899,-0.004326,-30.261086,39.080135,-10.367754,,,,,,
1478536465.51,-0.846354,-1.405842,1.750105,0.006554,0.007881,0.002229,-0.122970,0.986426,-0.108823,0.005492,0.008859,-0.008532,-30.150536,39.157936,-10.396233,,,,,,
1478536465.52,-0.838951,-1.405448,1.757191,0.007650,0.026440,0.001931,-0.122450,0.986361,-0.109990,0.003294,0.009321,-0.011134,-30.150536,39.157936,-10.396233,,,,,,
1478536465.53,-0.838234,-1.405391,1.757583,0.006330,0.032627,0.000582,-0.122413,0.986352,-0.110116,0.006523,0.008506,-0.008994,-30.095016,39.173908,-10.496446,,,,,,
1478536465.54,-0.837503,-1.405397,1.758004,0.002580,0.028852,0.005497,-0.122328,0.986353,-0.110201,0.006147,0.009634,-0.008024,-30.095016,39.173908,-10.496446,,,,,,
1478536465.55,-0.836839,-1.405404,1.758369,0.003853,0.027633,0.004309,-0.122250,0.986354,-0.110278,0.008450,0.007741,-0.002256,-30.086201,39.174057,-10.521132,,,,,,
1478536465.56,-0.836203,-1.405451,1.758686,0.000035,0.031290,0.007872,-0.122145,0.986362,-0.110324,0.006056,0.008695,0.001620,-30.081242,39.174988,-10.531845,,,,,,
1478536465.57,-0.835600,-1.405544,1.758985,-0.002479,0.030028,0.009083,-0.122010,0.986377,-0.110336,-0.000884,0.007321,0.004700,-30.081242,39.174988,-10.531845,,,,,,
1478536465.58,-0.835072,-1.405632,1.759200,-0.003731,0.028784,0.009086,-0.121888,0.986391,-0.110342,-0.002853,0.007429,0.006171,-30.067839,39.180367,-10.550101,,,,,,
1478536465.59,-0.834200,-1.405727,1.759783,0.000037,0.027562,0.014040,-0.121722,0.986407,-0.110386,-0.007108,0.007703,0.005710,-30.067839,39.180367,-10.550101,,,,,,
1478536465.60,-0.833718,-1.405807,1.760070,-0.003637,0.013987,0.008084,-0.121610,0.986420,-0.110391,-0.010210,0.006790,0.006799,-30.052610,39.187359,-10.567492,,,,,,
1478536465.61,-0.833160,-1.405861,1.760552,0.005283,0.005382,0.008358,-0.121509,0.986429,-0.110423,-0.008511,0.009543,0.003352,-30.052610,39.187359,-10.567492,,,,,,
1478536465.62,-0.832618,-1.405853,1.761130,0.009169,-0.005695,0.004921,-0.121456,0.986428,-0.110495,-0.007588,0.006859,0.003455,-30.042414,39.192863,-10.576080,,,,,,
1478536465.63,-0.832055,-1.405858,1.761795,0.009186,-0.006973,0.009849,-0.121389,0.986429,-0.110559,-0.010020,0.008124,0.004038,-30.042414,39.192863,-10.576080,,,,,,
1478536465.64,-0.831566,-1.405868,1.762372,0.004138,-0.008199,0.004891,-0.121328,0.986430,-0.110612,-0.009226,0.008260,0.004243,-30.038391,39.195301,-10.578465,,,,,,
1478536465.65,-0.836461,-1.405428,1.757677,0.004173,-0.011910,0.004953,-0.122191,0.986358,-0.110308,-0.007738,0.010743,0.001040,-30.038391,39.195301,-10.578465,,,,,,
1478536465.67,-0.839716,-1.405021,1.754655,0.006776,-0.020542,0.003909,-0.122848,0.986291,-0.110178,-0.006867,0.009696,0.000223,-30.072363,39.174278,-10.559792,,,,,,
1478536465.68,-0.842685,-1.404901,1.751881,0.005447,-0.013139,0.004991,-0.123263,0.986271,-0.109891,-0.005003,0.007839,0.001996,-30.072363,39.174278,-10.559792,,,,,,
1478536465.69,-0.844315,-1.405050,1.750361,0.005399,-0.007007,0.011019,-0.123332,0.986295,-0.109593,-0.002568,0.007433,0.002369,-30.118046,39.147072,-10.530450,,,,,,
1478536465.70,-0.843725,-1.405154,1.751061,0.000385,-0.010779,0.014690,-0.123191,0.986313,-0.109597,0.000708,0.006363,0.002435,-30.121609,39.148407,-10.515298,,,,,,
1478536465.71,-0.843439,-1.405237,1.751492,-0.000860,-0.013228,0.011034,-0.123098,0.986326,-0.109578,0.004110,0.008608,0.000218,-30.121609,39.148407,-10.515298,,,,,,
1478536465.72,-0.843187,-1.405347,1.751849,-0.003454,-0.005823,0.010871,-0.122989,0.986345,-0.109537,-0.000043,0.012969,0.002237,-30.113785,39.156204,-10.508675,,,,,,
1478536465.73,-0.842929,-1.405462,1.752172,-0.005955,-0.008332,0.013330,-0.122876,0.986363,-0.109493,-0.000048,0.014491,-0.000919,-30.113785,39.156204,-10.508675,,,,,,
1478536465.74,-0.842966,-1.405658,1.752297,-0.010950,-0.014556,0.014590,-0.122736,0.986396,-0.109360,0.002375,0.013696,-0.000290,-30.105997,39.164185,-10.501242,,,,,,
1478536465.75,-0.842968,-1.405863,1.752476,-0.010900,-0.019534,0.018354,-0.122585,0.986429,-0.109225,0.004055,0.011038,0.002062,-30.105997,39.164185,-10.501242,,,,,,
1478536465.76,-0.842784,-1.405997,1.752864,-0.003340,-0.018201,0.012308,-0.122466,0.986451,-0.109160,0.001189,0.006713,0.000227,-30.096504,39.176620,-10.482042,,,,,,
1478536465.77,-0.842508,-1.406072,1.753304,0.002948,-0.015659,0.008677,-0.122381,0.986464,-0.109144,-0.003244,0.001558,-0.003069,-30.096504,39.176620,-10.482042,,,,,,
1478536465.78,-0.841966,-1.406088,1.753967,0.009186,-0.006964,0.008620,-0.122310,0.986466,-0.109200,-0.002171,0.004241,-0.004997,-30.090601,39.184414,-10.469857,,,,,,
1478536465.79,-0.841293,-1.406067,1.754697,0.010409,-0.003205,0.003668,-0.122252,0.986463,-0.109296,-0.002016,0.004702,-0.008822,-30.090601,39.184414,-10.469857,,,,,,
1478536465.80,-0.840620,-1.406047,1.755427,0.007887,-0.003251,0.007312,-0.122193,0.986459,-0.109392,-0.000472,0.007300,-0.007796,-30.086433,39.187080,-10.471855,,,,,,
1478536465.81,-0.840216,-1.406107,1.755892,0.000344,-0.007016,0.008493,-0.122105,0.986469,-0.109402,0.004261,0.009945,-0.010456,-30.086433,39.187080,-10.471855,,,,,,
1478536465.82,-0.836765,-1.406016,1.759386,-0.009723,-0.010808,0.010864,-0.121794,0.986454,-0.109883,-0.000261,0.013454,-0.005535,-30.081219,39.190643,-10.473500,,,,,,
1478536465.83,-0.835250,-1.406216,1.760996,-0.016012,-0.013350,0.014496,-0.121480,0.986487,-0.109934,-0.000117,0.011911,-0.003408,-30.081219,39.190643,-10.473500,,,,,,
1478536465.84,-0.835187,-1.407113,1.761121,-0.022393,-0.005977,0.015506,-0.120817,0.986634,-0.109348,0.003111,0.012664,0.001514,-30.056812,39.204174,-10.492903,,,,,,
1478536465.85,-0.835479,-1.408020,1.760808,-0.014915,0.005199,0.015425,-0.120185,0.986781,-0.108712,0.003410,0.011617,0.003488,-30.056812,39.204174,-10.492903,,,,,,
1478536465.86,-0.835650,-1.408270,1.760447,-0.021376,0.021239,0.015061,-0.120021,0.986822,-0.108526,0.000712,0.007456,0.004889,-30.005600,39.256630,-10.443245,,,,,,
1478536465.88,-0.835457,-1.408494,1.760377,-0.010065,0.027501,0.013892,-0.119836,0.986858,-0.108401,-0.000739,0.002751,0.008563,-29.997932,39.263226,-10.440491,,,,,,
1478536465.89,-0.834812,-1.408643,1.760711,-0.005035,0.030004,0.013923,-0.119657,0.986882,-0.108380,-0.005190,0.001338,0.004788,-29.997932,39.263226,-10.440491,,,,,,
1478536465.90,-0.834160,-1.408778,1.761085,-0.001215,0.026337,0.011587,-0.119488,0.986904,-0.108369,-0.006443,0.001378,-0.000488,-29.979923,39.274647,-10.449255,,,,,,
1478536465.91,-0.833090,-1.408810,1.761881,0.010140,0.027651,0.010502,-0.119349,0.986909,-0.108475,-0.010641,0.003722,0.000107,-29.979923,39.274647,-10.449255,,,,,,
1478536465.92,-0.831971,-1.408806,1.762753,0.008918,0.022717,0.008115,-0.119230,0.986908,-0.108611,-0.011766,0.003464,0.001205,-29.964151,39.281868,-10.467327,,,,,,
1478536465.93,-0.830613,-1.408776,1.763933,0.020346,0.016580,0.010836,-0.119104,0.986903,-0.108793,-0.009909,0.000890,-0.000170,-29.964151,39.281868,-10.467327,,,,,,
1478536465.94,-0.828756,-1.408699,1.765624,0.024127,0.017818,0.013323,-0.118958,0.986891,-0.109065,-0.010879,0.002001,0.003353,-29.951641,39.284996,-10.491369,,,,,,
1478536465.95,-0.827001,-1.408685,1.767234,0.017837,0.015287,0.015728,-0.118777,0.986889,-0.109283,-0.010648,0.003712,0.004791,-29.951641,39.284996,-10.491369,,,,,,
1478536465.96,-0.825531,-1.408697,1.768607,0.011565,0.010313,0.014495,-0.118607,0.986891,-0.109450,-0.009200,0.005938,0.004057,-29.936419,39.288982,-10.519840,,,,,,
1478536465.97,-0.823813,-1.408720,1.770270,0.016649,0.007807,0.021969,-0.118403,0.986894,-0.109638,-0.007254,0.006392,0.004474,-29.936419,39.288982,-10.519840,,,,,,
1478536465.98,-0.828860,-1.409041,1.765244,0.005285,0.007718,0.024258,-0.118720,0.986946,-0.108825,-0.005395,0.008507,0.005843,-29.920340,39.296162,-10.538773,,,,,,
1478536465.99,-0.832149,-1.409438,1.762000,0.001538,0.002759,0.023061,-0.118788,0.987010,-0.108170,-0.004030,0.009862,0.004776,-29.920340,39.296162,-10.538773,,,,,,
1478536466.00,-0.833338,-1.409979,1.760834,0.001560,0.001449,0.031668,-0.118521,0.987097,-0.107669,-0.001947,0.010675,0.003787,-29.936764,39.300449,-10.475961,,,,,,
1478536466.01,-0.832261,-1.410292,1.761899,-0.002252,0.003900,0.031572,-0.118177,0.987147,-0.107589,-0.001269,0.010397,-0.000214,-29.936764,39.300449,-10.475961,,,,,,
1478536466.02,-0.832588,-1.410467,1.761556,-0.004786,0.005101,0.033968,-0.118084,0.987175,-0.107434,-0.004169,0.008293,0.000409,-29.912495,39.325169,-10.452485,,,,,,
1478536466.03,-0.831302,-1.410811,1.762812,-0.008571,0.005048,0.037593,-0.117695,0.987230,-0.107357,-0.004955,0.006087,0.001507,-29.908726,39.329597,-10.446609,,,,,,
1478536466.04,-0.832062,-1.410754,1.762065,-0.014852,0.001300,0.037565,-0.117819,0.987220,-0.107306,-0.007624,0.007668,-0.002146,-29.908726,39.329597,-10.446609,,,,,,
1478536466.05,-0.830898,-1.411161,1.763244,-0.013564,-0.001187,0.040079,-0.117396,0.987285,-0.107171,-0.008473,0.006520,-0.002463,-29.898003,39.338943,-10.442086,,,,,,
1478536466.06,-0.829651,-1.411523,1.764440,-0.012384,0.007509,0.036270,-0.116999,0.987343,-0.107077,-0.012151,0.005653,-0.007074,-29.898003,39.338943,-10.442086,,,,,,
1478536466.08,-0.828994,-1.411925,1.764967,-0.018783,0.016160,0.032352,-0.116636,0.987406,-0.106885,-0.014239,0.007390,-0.005984,-29.864946,39.366020,-10.434645,,,,,,
1478536466.09,-0.828299,-1.412286,1.765478,-0.018795,0.017407,0.031104,-0.116299,0.987464,-0.106725,-0.019199,0.012323,-0.008952,-29.864946,39.366020,-10.434645,,,,,,
1478536466.10,-0.827751,-1.412670,1.765901,-0.018738,0.011213,0.032436,-0.115962,0.987524,-0.106533,-0.018911,0.011087,-0.009342,-29.834999,39.390259,-10.428856,,,,,,
1478536466.11,-0.827220,-1.413118,1.766366,-0.025002,0.006187,0.037336,-0.115579,0.987595,-0.106295,-0.014044,0.007141,-0.012617,-29.834999,39.390259,-10.428856,,,,,,
1478536466.12,-0.826451,-1.413701,1.767113,-0.031256,0.001089,0.050823,-0.115074,0.987686,-0.105993,-0.013222,0.004059,-0.011759,-29.805016,39.416145,-10.416773,,,,,,
1478536466.13,-0.825725,-1.414321,1.767855,-0.032509,-0.000145,0.049599,-0.114546,0.987783,-0.105661,-0.016191,0.005244,-0.014944,-29.805016,39.416145,-10.416773,,,,,,
1478536466.14,-0.824423,-1.415051,1.769262,-0.031147,-0.008930,0.065711,-0.113880,0.987896,-0.105321,-0.019253,0.005436,-0.011775,-29.763647,39.453903,-10.392073,,,,,,
1478536466.15,-0.825442,-1.413922,1.768532,-0.033515,-0.026261,0.065968,-0.114807,0.987720,-0.105962,-0.015717,0.001492,-0.009975,-29.763647,39.453903,-10.392073,,,,,,
1478536466.16,-0.827771,-1.412811,1.766631,-0.024580,-0.037287,0.060149,-0.115861,0.987546,-0.106436,-0.018493,0.002871,-0.009104,-29.776421,39.443661,-10.394369,,,,,,
1478536466.17,-0.831098,-1.411730,1.763826,-0.019495,-0.042122,0.050491,-0.117003,0.987376,-0.106770,-0.019853,0.001699,-0.007549,-29.776421,39.443661,-10.394369,,,,,,
1478536466.18,-0.835455,-1.410280,1.759988,-0.005611,-0.041967,0.042102,-0.118528,0.987145,-0.107219,-0.024569,0.000938,-0.007802,-29.870270,39.370834,-10.401197,,,,,,
1478536466.19,-0.834365,-1.410676,1.761565,-0.009349,-0.046978,0.047038,-0.118122,0.987208,-0.107086,-0.029079,0.004033,-0.005402,-29.934538,39.321041,-10.404789,,,,,,
1478536466.20,-0.832367,-1.411203,1.764261,0.006066,-0.070678,0.082002,-0.117523,0.987292,-0.106971,-0.028870,-0.003115,-0.007348,-29.934538,39.321041,-10.404789,,,,,,
1478536466.21,-0.830533,-1.412120,1.767711,-0.038528,-0.166292,0.096463,-0.116658,0.987437,-0.106576,-0.030192,-0.005015,-0.004737,-29.901409,39.356373,-10.366396,,,,,,
1478536466.22,-0.830002,-1.413113,1.769985,-0.036014,-0.171104,0.089184,-0.115878,0.987594,-0.105976,-0.018216,-0.048354,-0.040554,-29.901409,39.356373,-10.366396,,,,,,
1478536466.23,-0.829671,-1.414024,1.772273,-0.030818,-0.187142,0.088304,-0.115179,0.987736,-0.105407,-0.042200,0.025935,0.020736,-29.855696,39.423122,-10.243794,,,,,,
1478536466.24,-0.829356,-1.414940,1.774919,-0.030436,-0.229202,0.090246,-0.114479,0.987879,-0.104832,-0.052406,0.013067,0.013218,-29.855696,39.423122,-10.243794,,,,,,
1478536466.25,-0.830066,-1.415825,1.776777,-0.039149,-0.245229,0.078126,-0.113908,0.988016,-0.104161,-0.056517,0.009878,0.002629,-29.824986,39.485619,-10.091417,,,,,,
1478536466.26,-0.831933,-1.416636,1.777627,-0.045343,-0.261188,0.059909,-0.113510,0.988141,-0.103408,-0.060898,0.017398,0.000549,-29.824986,39.485619,-10.091417,,,,,,
1478536466.27,-0.834859,-1.417341,1.777490,-0.047845,-0.266015,0.044010,-0.113295,0.988249,-0.102608,-0.046586,0.021807,0.005043,-29.816866,39.539722,-9.901783,,,,,,
1478536466.29,-0.838531,-1.417957,1.776511,-0.051796,-0.249856,0.031416,-0.113218,0.988343,-0.101784,-0.030886,0.021835,0.010140,-29.816866,39.539722,-9.901783,,,,,,
1478536466.30,-0.842138,-1.418701,1.775112,-0.063612,-0.198124,0.047543,-0.113037,0.988456,-0.100886,-0.025818,0.026208,0.013346,-29.836481,39.575466,-9.697807,,,,,,
1478536466.31,-0.842538,-1.419909,1.776918,-0.063372,-0.214815,0.120189,-0.112186,0.988638,-0.100046,-0.027249,0.026621,0.017633,-29.836481,39.575466,-9.697807,,,,,,
1478536466.32,-0.845821,-1.421516,1.775679,-0.120640,-0.170461,0.098989,-0.111324,0.988878,-0.098623,-0.021000,-0.019503,0.007788,-29.819645,39.632114,-9.516552,,,,,,
1478536466.33,-0.849162,-1.423208,1.773253,-0.130481,-0.059256,0.103102,-0.110397,0.989129,-0.097145,-0.026200,0.028450,0.043694,-29.819645,39.632114,-9.516552,,,,,,
1478536466.34,-0.851746,-1.425098,1.771535,-0.141488,-0.096592,0.123196,-0.109241,0.989405,-0.095628,-0.018033,0.027136,0.039842,-29.764263,39.719368,-9.324217,,,,,,
1478536466.35,-0.881980,-1.425325,1.742537,-0.166801,-0.090600,0.127633,-0.111908,0.989438,-0.092139,-0.031281,-0.002499,0.012458,-29.722599,39.770020,-9.240852,,,,,,
1478536466.36,-0.886242,-1.427591,1.739148,-0.173110,-0.089514,0.141015,-0.110563,0.989764,-0.090243,-0.034488,-0.005419,0.011081,-29.722599,39.770020,-9.240852,,,,,,
1478536466.37,-0.883980,-1.430518,1.743048,-0.131579,-0.194276,0.274613,-0.108117,0.990177,-0.088656,-0.042197,-0.012516,0.007052,-29.788857,39.784164,-8.962418,,,,,,
1478536466.38,-0.886412,-1.432992,1.743178,-0.149094,-0.230403,0.147419,-0.106435,0.990520,-0.086844,-0.049465,-0.027339,-0.013330,-29.788857,39.784164,-8.962418,,,,,,
1478536466.39,-0.890055,-1.434658,1.740627,-0.110233,-0.071345,0.099854,-0.105468,0.990747,-0.085417,-0.055482,-0.046122,-0.016680,-29.644608,39.945438,-8.720086,,,,,,
1478536466.40,-0.890808,-1.435949,1.741101,-0.061663,-0.135301,0.093050,-0.104537,0.990922,-0.084533,-0.087754,0.092040,0.020858,-29.644608,39.945438,-8.720086,,,,,,
1478536466.41,-0.892645,-1.436690,1.740887,-0.040079,-0.154516,0.040948,-0.104120,0.991021,-0.083880,-0.072012,0.035605,-0.009229,-29.580139,40.026154,-8.567543,,,,,,
1478536466.42,-0.894448,-1.436914,1.740670,-0.006051,-0.150324,0.008255,-0.104098,0.991051,-0.083553,-0.073010,0.017417,-0.003651,-29.580139,40.026154,-8.567543,,,,,,
1478536466.43,-0.896074,-1.436889,1.740747,-0.000865,-0.166299,0.000014,-0.104253,0.991048,-0.083399,-0.051890,0.015346,0.000727,-29.578846,40.052837,-8.446451,,,,,,
1478536466.44,-0.898823,-1.437018,1.739640,-0.022429,-0.155358,0.006877,-0.104382,0.991065,-0.083033,-0.030521,0.008706,0.005717,-29.578846,40.052837,-8.446451,,,,,,
1478536466.45,-0.900802,-1.437363,1.738965,-0.030375,-0.112271,0.024431,-0.104278,0.991111,-0.082614,-0.021988,0.000909,0.026782,-29.607182,40.054150,-8.340293,,,,,,
1478536466.46,-0.902553,-1.438042,1.738209,-0.054525,-0.091647,0.054396,-0.103894,0.991201,-0.082014,-0.028094,0.003275,0.060713,-29.607182,40.054150,-8.340293,,,,,,
1478536466.47,-0.901545,-1.439781,1.740220,-0.104846,-0.100259,0.159290,-0.102460,0.991430,-0.081049,-0.037616,0.014796,0.080485,-29.598909,40.080925,-8.240430,,,,,,
1478536466.49,-0.905195,-1.441594,1.737685,-0.136388,-0.111152,0.108733,-0.101341,0.991665,-0.079565,-0.002099,-0.061245,0.073446,-29.598909,40.080925,-8.240430,,,,,,
1478536466.50,-0.910203,-1.443545,1.733140,-0.158747,-0.011235,0.122667,-0.100210,0.991915,-0.077869,-0.073984,0.070677,0.091831,-29.505934,40.180531,-8.087347,,,,,,
1478536466.51,-0.914964,-1.445734,1.729451,-0.166411,-0.140005,0.135768,-0.098859,0.992190,-0.076067,-0.054126,0.039716,0.104677,-29.505934,40.180531,-8.087347,,,,,,
1478536466.52,-1.042596,-1.444033,1.604349,-0.180176,-0.156104,0.128476,-0.109194,0.991976,-0.063715,-0.073972,0.005186,0.063044,-29.413015,40.284851,-7.904798,,,,,,
1478536466.53,-1.052632,-1.446140,1.595801,-0.192906,-0.146222,0.120767,-0.108012,0.992240,-0.061581,-0.083318,0.024376,0.083721,-29.848427,40.075432,-7.315148,,,,,,
1478536466.54,-1.064571,-1.448225,1.585327,-0.208067,-0.147455,0.109531,-0.106931,0.992498,-0.059284,-0.088123,0.026805,0.081256,-29.848427,40.075432,-7.315148,,,,,,
1478536466.55,-1.078849,-1.450256,1.572681,-0.226830,-0.169714,0.096145,-0.105989,0.992744,-0.056799,-0.090330,0.015557,0.080831,-29.771444,40.178844,-7.057064,,,,,,
1478536466.56,-1.096651,-1.452263,1.556744,-0.258209,-0.194481,0.077713,-0.105211,0.992983,-0.053993,-0.099379,0.027799,0.087837,-29.771444,40.178844,-7.057064,,,,,,
1478536466.57,-1.119450,-1.454180,1.536154,-0.295790,-0.232826,0.052062,-0.104701,0.993208,-0.050750,-0.108464,0.028749,0.095672,-29.718824,40.270721,-6.748404,,,,,,
1478536466.58,-1.148783,-1.455871,1.509368,-0.348559,-0.269900,0.011453,-0.104612,0.993403,-0.046970,-0.117480,0.037252,0.110355,-29.718824,40.270721,-6.748404,,,,,,
1478536466.59,-1.187062,-1.457265,1.474093,-0.425222,-0.320605,-0.042762,-0.105048,0.993562,-0.042413,-0.119546,0.054472,0.126306,-29.717339,40.339058,-6.334094,,,,,,
1478536466.60,-1.239413,-1.458399,1.425298,-0.565021,-0.385092,-0.095307,-0.106059,0.993690,-0.036492,-0.113378,0.064721,0.142937,-29.717339,40.339058,-6.334094,,,,,,
1478536466.61,-1.312985,-1.459195,1.356074,-0.787804,-0.482361,-0.158204,-0.107689,0.993779,-0.028395,-0.091529,0.078563,0.171126,-29.806900,40.363647,-5.727588,,,,,,
1478536466.62,-1.416494,-1.459075,1.257919,-1.098882,-0.597258,-0.246607,-0.110164,0.993766,-0.017135,-0.059956,0.111550,0.195998,-29.806900,40.363647,-5.727588,,,,,,
1478536466.63,-1.555531,-1.456878,1.125202,-1.506020,-0.708826,-0.358529,-0.113659,0.993518,-0.001735,-0.030430,0.151486,0.203716,-30.017757,40.343918,-4.667243,,,,,,
1478536466.64,-1.727294,-1.450362,0.960507,-1.996734,-0.806730,-0.536891,-0.118675,0.992757,0.018726,-0.016518,0.165050,0.183316,-30.017757,40.343918,-4.667243,,,,,,
1478536466.65,-1.913301,-1.437041,0.782386,-2.522828,-0.907079,-0.743931,-0.125611,0.991068,0.044788,-0.027267,0.125143,0.134961,-30.420904,40.213127,-2.820182,,,,,,
1478536466.66,-2.084761,-1.416000,0.619314,-2.949438,-0.972281,-0.941543,-0.134260,0.988043,0.075800,-0.027011,0.072260,0.131720,-30.420904,40.213127,-2.820182,,,,,,
1478536466.67,-2.220495,-1.388392,0.491864,-3.187436,-0.937651,-1.111135,-0.144438,0.983410,0.109734,0.020537,-0.003140,0.142799,-31.114773,39.778774,-0.017754,,,,,,
1478536466.68,-2.321880,-1.356370,0.397491,-3.296265,-0.790257,-1.215763,-0.155537,0.977099,0.145213,0.051426,0.018873,0.172368,-31.553104,39.399342,1.604412,,,,,,
1478536466.70,-2.393881,-1.322700,0.330777,-3.284923,-0.649097,-1.229020,-0.166971,0.969382,0.180055,0.081613,0.155954,0.262205,-31.553104,39.399342,1.604412,,,,,,
1478536466.71,-2.451402,-1.288551,0.278801,-3.320775,-0.723062,-1.136305,-0.177325,0.960432,0.214768,0.068408,0.393724,0.370833,-32.491112,38.361671,4.815632,,,,,,
1478536466.72,-2.501453,-1.253043,0.235879,-3.414669,-0.959645,-1.158196,-0.186619,0.949940,0.250576,-0.075909,0.638332,0.314381,-32.491112,38.361671,4.815632,,,,,,
1478536466.73,-2.547168,-1.216278,0.202809,-3.472029,-1.464416,-1.173806,-0.194409,0.937814,0.287594,-0.194553,0.827338,0.267109,-33.297398,37.115234,8.013933,,,,,,
1478536466.74,-2.590152,-1.178562,0.174718,-3.557030,-1.693130,-1.096358,-0.200269,0.924057,0.325593,-0.341540,0.918808,-0.038423,-33.297398,37.115234,8.013933,,,,,,
1478536466.75,-2.641041,-1.141208,0.148852,-3.564400,-2.947691,-0.886413,-0.199881,0.909137,0.365400,-0.212091,0.843411,-0.199918,-33.867489,35.575783,11.740402,,,,,,
1478536466.76,-2.700988,-1.104892,0.126594,-3.458651,-4.003452,-0.706399,-0.191591,0.893416,0.406327,-0.113875,0.765321,-0.445862,-33.867489,35.575783,11.740402,,,,,,
1478536466.77,-2.761040,-1.070345,0.107849,-3.308355,-4.113111,-0.501240,-0.178222,0.877366,0.445495,-0.053467,0.619750,-0.579116,-33.524426,33.934002,16.585443,,,,,,
1478536466.78,-2.816153,-1.036943,0.091678,-3.228666,-3.824531,-0.350428,-0.162694,0.860853,0.482144,-0.128673,0.410006,-0.516126,-33.524426,33.934002,16.585443,,,,,,
1478536466.79,-2.866415,-1.003476,0.077409,-3.274980,-3.575971,-0.236327,-0.146014,0.843344,0.517156,-0.199582,0.242441,-0.357336,-32.234512,32.282764,21.661940,,,,,,
1478536466.80,-2.915311,-0.968438,0.064713,-3.435449,-3.701216,-0.164168,-0.127117,0.824002,0.552143,-0.251698,0.174274,-0.162068,-32.234512,32.282764,21.661940,,,,,,
1478536466.81,-2.965369,-0.932147,0.054211,-3.506891,-4.035989,-0.111717,-0.104506,0.802902,0.586879,-0.209748,0.203522,0.050862,-30.550251,30.459476,26.256104,,,,,,
1478536466.82,-3.015853,-0.895993,0.047428,-3.440716,-4.373027,-0.132054,-0.078348,0.780830,0.619812,-0.136846,0.209130,-0.066406,-29.449497,29.412174,28.603001,,,,,,
1478536466.83,-3.066302,-0.861035,0.043400,-3.292832,-4.514869,-0.071108,-0.049017,0.758517,0.649807,-0.064737,0.169446,-0.215801,-29.449497,29.412174,28.603001,,,,,,
1478536466.84,-3.113569,-0.827530,0.040990,-3.163781,-4.246441,0.012075,-0.018961,0.736262,0.676431,-0.059546,0.121739,-0.286294,-26.651581,27.139435,33.220848,,,,,,
1478536466.85,3.124864,-0.794398,0.038757,-3.157540,-4.075897,0.176084,0.011722,0.713442,0.700616,-0.090228,0.144560,-0.310479,-26.651581,27.139435,33.220848,,,,,,
1478536466.86,3.080215,-0.761150,0.036195,-3.147238,-4.077115,0.327107,0.044412,0.689755,0.722680,-0.081705,0.093006,-0.290398,-26.651581,27.139435,33.220848,,,,,,
1478536466.87,3.036992,-0.728566,0.034281,-3.042242,-3.942408,0.412201,0.077904,0.665801,0.742051,-0.036919,0.066987,-0.273958,-21.792837,23.626671,38.952957,,,,,,
1478536466.88,2.996275,-0.697351,0.031651,-2.885861,-3.606811,0.614837,0.111001,0.642189,0.758467,-0.030343,0.108162,-0.321699,-21.792837,23.626671,38.952957,,,,,,
1478536466.90,2.958626,-0.667147,0.027730,-2.758453,-3.282372,0.800074,0.142936,0.618747,0.772477,-0.099678,0.121670,-0.331315,-18.292671,21.269184,41.993816,,,,,,
1478536466.91,2.922583,-0.637559,0.022861,-2.660058,-3.107428,0.948168,0.174582,0.595235,0.784357,0.015756,-0.066930,-0.230600,-16.629366,20.159184,43.215179,,,,,,
1478536466.92,2.889449,-0.608353,0.018397,-2.624765,-2.812083,0.998882,0.204721,0.571517,0.794643,0.064566,-0.142852,-0.249843,-14.991249,19.077568,44.292091,,,,,,
1478536466.93,2.861706,-0.579903,0.014529,-2.483900,-2.324010,1.001262,0.231085,0.547943,0.803964,0.081247,-0.166046,-0.276849,-14.991249,19.077568,44.292091,,,,,,
1478536466.94,2.838636,-0.553142,0.011440,-2.324385,-1.950375,0.949426,0.253854,0.525363,0.812128,0.058478,-0.143466,-0.285013,-14.991249,19.077568,44.292091,,,,,,
1478536466.95,2.818820,-0.528253,0.009769,-2.177033,-1.777813,0.829674,0.273959,0.504025,0.819088,0.089886,-0.515759,-0.324169,-10.921487,15.875070,46.681728,,,,,,
1478536466.96,2.801168,-0.505268,0.009769,-2.031997,-1.634575,0.666232,0.292167,0.484042,0.824828,0.055352,-0.598682,-0.309707,-10.921487,15.875070,46.681728,,,,,,
1478536466.97,2.785763,-0.484264,0.011685,-1.892816,-1.542092,0.504788,0.308312,0.465557,0.829579,-0.056420,-0.400829,-0.303959,-8.946733,13.916206,47.715569,,,,,,
1478536466.98,2.770607,-0.465701,0.014421,-1.679325,-1.560756,0.378181,0.323927,0.449049,0.832722,-0.141310,-0.311720,-0.287510,-8.946733,13.916206,47.715569,,,,,,
1478536466.99,2.755189,-0.449572,0.017802,-1.486852,-1.627905,0.266807,0.339413,0.434580,0.834230,-0.176342,-0.196543,-0.330842,-7.242885,12.143118,48.482635,,,,,,
1478536467.00,2.739085,-0.435602,0.021223,-1.285585,-1.678394,0.238677,0.355146,0.421956,0.834161,-0.169080,-0.201070,-0.358590,-7.242885,12.143118,48.482635,,,,,,
1478536467.01,2.723777,-0.423878,0.024254,-1.081081,-1.530803,0.187627,0.369855,0.411298,0.833091,-0.148374,-0.196134,-0.373970,-5.496158,10.706994,49.047253,,,,,,
1478536467.02,2.710604,-0.413769,0.027351,-0.961814,-1.315741,0.140339,0.382514,0.402063,0.831882,-0.109107,-0.174127,-0.377872,-5.496158,10.706994,49.047253,,,,,,
1478536467.03,2.700170,-0.404685,0.030498,-0.882228,-1.040465,0.109859,0.392718,0.393729,0.831114,-0.119845,-0.262854,-0.366682,-3.931566,9.630226,49.419449,,,,,,
1478536467.04,2.692786,-0.396206,0.033636,-0.836904,-0.745747,0.095727,0.400278,0.385921,0.831169,-0.101068,-0.257763,-0.360588,-3.931566,9.630226,49.419449,,,,,,
1478536467.05,2.688366,-0.388256,0.036741,-0.783884,-0.464547,0.077028,0.405278,0.378575,0.832124,-0.065602,-0.252766,-0.347917,-2.905472,8.728801,49.657295,,,,,,
1478536467.06,2.686618,-0.381336,0.039929,-0.690160,-0.219869,0.019060,0.407874,0.372161,0.833748,0.008416,-0.148559,-0.320381,-2.619299,8.313438,49.744415,,,,,,
1478536467.07,2.688018,-0.375491,0.043689,-0.638642,0.076850,-0.080869,0.407652,0.366729,0.836259,0.008043,-0.134262,-0.298036,-2.469599,7.940340,49.812977,,,,,,
1478536467.08,2.692110,-0.370203,0.048473,-0.637909,0.260800,-0.189439,0.405064,0.361805,0.839655,-0.020665,-0.122272,-0.234766,-2.469599,7.940340,49.812977,,,,,,
1478536467.09,2.697568,-0.365538,0.054325,-0.615951,0.331180,-0.306823,0.401195,0.357452,0.843368,-0.016796,-0.117919,-0.238480,-2.469599,7.940340,49.812977,,,,,,
1478536467.11,2.703615,-0.361882,0.060944,-0.545562,0.355969,-0.409247,0.396640,0.354035,0.846957,-0.035022,-0.107422,-0.191256,-2.792557,6.926372,49.947044,,,,,,
1478536467.12,2.710097,-0.359638,0.068067,-0.425918,0.382264,-0.508533,0.391473,0.351936,0.850230,0.011283,-0.097190,-0.152659,-2.792557,6.926372,49.947044,,,,,,
1478536467.13,2.716611,-0.359180,0.075439,-0.271761,0.364196,-0.601666,0.385993,0.351507,0.852908,0.041055,-0.100103,-0.131015,-3.235771,6.359630,49.995655,,,,,,
1478536467.14,2.722541,-0.360576,0.083051,-0.119609,0.288015,-0.697526,0.380728,0.352813,0.854733,0.049524,-0.086181,-0.071530,-3.235771,6.359630,49.995655,,,,,,
1478536467.15,2.727519,-0.363557,0.090965,0.005087,0.176906,-0.777249,0.376044,0.355601,0.855651,0.004952,-0.106120,-0.016845,-3.675730,6.067584,50.001541,,,,,,
1478536467.16,2.731127,-0.368025,0.099008,0.136424,0.032296,-0.839140,0.372316,0.359774,0.855537,-0.052919,-0.140246,-0.017265,-3.675730,6.067584,50.001541,,,,,,
1478536467.17,2.733193,-0.374243,0.106718,0.319389,-0.090016,-0.868775,0.369652,0.365568,0.854235,-0.065179,-0.154524,-0.061007,-3.921553,6.044819,49.985619,,,,,,
1478536467.18,2.734847,-0.382662,0.113828,0.542901,-0.087117,-0.906070,0.367009,0.373392,0.851988,-0.059514,-0.212610,-0.119322,-3.921553,6.044819,49.985619,,,,,,
1478536467.19,2.736344,-0.393671,0.120237,0.808233,-0.098834,-0.940062,0.364090,0.383582,0.848707,-0.033371,-0.302924,-0.124449,-3.950583,6.369508,49.942997,,,,,,
1478536467.20,2.736281,-0.407847,0.125762,1.136757,-0.257143,-0.996423,0.361963,0.396634,0.843602,0.016303,-0.384137,-0.054845,-3.950583,6.369508,49.942997,,,,,,
1478536467.21,2.734726,-0.426479,0.130584,1.575649,-0.336339,-1.116301,0.360287,0.413668,0.836106,0.056309,-0.484652,0.077652,-3.929314,7.227682,49.827721,,,,,,
1478536467.22,2.735273,-0.449509,0.134534,1.951388,0.012652,-1.170731,0.355969,0.434524,0.827330,0.070392,-0.545287,0.146150,-3.929314,7.227682,49.827721,,,,,,
1478536467.23,2.741795,-0.466808,0.134824,1.188239,0.836379,-0.413177,0.347588,0.450038,0.822586,0.143562,-0.411296,-0.025559,-3.889519,8.880699,49.562943,,,,,,
1478536467.24,2.750285,-0.463591,0.133613,-0.570237,0.662952,0.268348,0.341142,0.447163,0.826842,0.382888,-0.233021,-0.032454,-4.270845,9.634315,49.390488,,,,,,
1478536467.25,2.745007,-0.458482,0.136284,-0.536555,-1.030974,-0.180888,0.346379,0.442587,0.827126,1.267055,0.306695,0.998985,-4.270845,9.634315,49.390488,,,,,,
1478536467.26,2.744999,-0.459924,0.146207,-0.015366,0.174883,-0.990914,0.346139,0.443880,0.826534,1.108451,2.547835,2.231694,-4.378318,9.238714,49.456619,,,,,,
1478536467.27,2.762350,-0.470651,0.153028,1.052618,1.387156,-0.856144,0.329964,0.453467,0.827944,-0.020714,2.472651,1.260038,-4.378318,9.238714,49.456619,,,,,,
1478536467.28,2.766192,-0.493286,0.151314,2.285661,0.142163,-0.601471,0.322934,0.473523,0.819445,-0.826566,0.982852,1.119764,-5.036844,9.428603,49.357998,,,,,,
1478536467.29,2.766242,-0.517803,0.147068,2.224188,0.388315,-0.505945,0.318541,0.494972,0.808415,0.951783,-0.651130,-0.551701,-5.036844,9.428603,49.357998,,,,,,
1478536467.30,2.777186,-0.537754,0.142912,1.796095,1.519427,-0.321495,0.306094,0.512208,0.802464,1.429486,-1.178346,-0.682607,-5.498212,11.610427,48.841049,,,,,,
1478536467.32,2.797602,-0.555583,0.139763,1.674628,2.232802,-0.386802,0.286522,0.527439,0.799821,0.595039,-0.677906,0.225066,-6.179603,12.556701,48.524452,,,,,,
1478536467.33,2.822466,-0.575701,0.137885,1.943709,2.495072,-0.498953,0.263166,0.544423,0.796459,0.313006,0.267757,0.004902,-6.179603,12.556701,48.524452,,,,,,
1478536467.34,2.845788,-0.599372,0.135450,2.270291,2.280564,-0.491843,0.240696,0.564124,0.789829,-0.177403,0.368219,-0.249897,-8.602482,14.281527,47.670914,,,,,,
1478536467.35,2.866758,-0.623341,0.133534,2.183947,2.047706,-0.510009,0.220349,0.583751,0.781461,-0.178875,0.358296,-0.346814,-8.602482,14.281527,47.670914,,,,,,
1478536467.36,2.889326,-0.645480,0.133470,1.996478,2.239826,-0.549073,0.199383,0.601582,0.773528,-0.141278,0.467678,-0.287474,-10.965068,16.374147,46.498764,,,,,,
1478536467.37,2.917045,-0.666757,0.133506,1.961633,2.755673,-0.446676,0.174978,0.618441,0.766103,-0.163351,0.599439,-0.065145,-10.965068,16.374147,46.498764,,,,,,
1478536467.38,2.947553,-0.687752,0.132474,1.978380,3.018033,-0.311048,0.148991,0.634802,0.758174,0.006481,0.514749,-0.140498,-13.455889,18.172476,45.157288,,,,,,
1478536467.39,2.980030,-0.709048,0.131039,2.023318,3.226721,-0.242787,0.122090,0.651112,0.749098,0.289653,0.306911,-0.274580,-13.455889,18.172476,45.157288,,,,,,
1478536467.40,3.015073,-0.730727,0.130255,2.055521,3.437174,-0.245875,0.093966,0.667411,0.738737,0.331677,0.097817,-0.328505,-16.434010,19.934221,43.393898,,,,,,
1478536467.41,3.054082,-0.752839,0.131049,2.095644,3.744469,-0.288503,0.063779,0.683713,0.726958,0.220507,-0.036130,-0.318893,-16.434010,19.934221,43.393898,,,,,,
1478536467.42,3.098217,-0.775220,0.133608,2.116205,4.120838,-0.323995,0.030972,0.699873,0.713595,0.062427,-0.033888,-0.272494,-19.678951,21.674112,41.151573,,,,,,
1478536467.43,-3.137120,-0.797178,0.137171,2.066204,4.352414,-0.251359,-0.003125,0.715387,0.698721,-0.069857,0.046545,-0.294211,-19.678951,21.674112,41.151573,,,,,,
1478536467.44,-3.090580,-0.817979,0.139263,1.943811,4.230875,-0.005784,-0.034862,0.729765,0.682808,-0.137166,0.117265,-0.323509,-23.303680,23.294533,38.272491,,,,,,
1478536467.45,-3.048637,-0.838276,0.139505,1.939722,3.865911,0.154851,-0.062074,0.743491,0.665859,-0.087081,0.141366,-0.315685,-23.303680,23.294533,38.272491,,,,,,
1478536467.46,-3.011761,-0.859106,0.138696,1.968540,3.492566,0.306291,-0.084557,0.757259,0.647618,0.005394,0.128163,-0.295781,-26.480385,24.815506,35.120655,,,,,,
1478536467.47,-2.977877,-0.880313,0.137196,1.986987,3.281601,0.405782,-0.103807,0.770938,0.628394,0.010851,0.077283,-0.312430,-27.696402,25.601902,33.584702,,,,,,
1478536467.48,-2.946027,-0.901786,0.135653,1.993807,3.094369,0.469136,-0.120520,0.784436,0.608387,-0.025140,-0.033673,-0.347767,-27.696402,25.601902,33.584702,,,,,,
1478536467.49,-2.916375,-0.923305,0.134623,1.983630,2.825739,0.494374,-0.134703,0.797599,0.587955,-0.093004,-0.051551,-0.364917,-29.646500,27.196146,30.527615,,,,,,
1478536467.50,-2.889652,-0.944153,0.133961,1.891734,2.512213,0.505698,-0.146187,0.810000,0.567916,-0.160011,-0.053607,-0.392532,-29.646500,27.196146,30.527615,,,,,,
1478536467.52,-2.865594,-0.963873,0.134047,1.784534,2.208867,0.472478,-0.155423,0.821407,0.548757,-0.177463,-0.053493,-0.398763,-31.034670,28.707024,27.626736,,,,,,
1478536467.53,-2.843582,-0.982318,0.134949,1.662816,1.975841,0.448899,-0.162987,0.831786,0.530629,-0.186638,-0.048492,-0.369755,-31.034670,28.707024,27.626736,,,,,,
1478536467.54,-2.822879,-0.999351,0.135839,1.522222,1.877343,0.443626,-0.169472,0.841120,0.513611,-0.201469,-0.049342,-0.355011,-31.940155,29.989470,25.118492,,,,,,
1478536467.55,-2.802940,-1.014912,0.136665,1.377491,1.817162,0.437646,-0.175309,0.849434,0.497723,-0.167739,-0.057412,-0.294262,-31.940155,29.989470,25.118492,,,,,,
1478536467.56,-2.783226,-1.029252,0.137372,1.270080,1.820311,0.427457,-0.180795,0.856913,0.482714,-0.128669,-0.076686,-0.226137,-32.596962,31.040686,22.899662,,,,,,
1478536467.57,-2.762310,-1.042788,0.139273,1.235649,1.846674,0.356608,-0.186539,0.863812,0.468008,-0.073852,-0.101407,-0.167898,-32.596962,31.040686,22.899662,,,,,,
1478536467.58,-2.739675,-1.055775,0.143225,1.181684,1.798680,0.290410,-0.192679,0.870282,0.453303,-0.019265,-0.101651,-0.149943,-33.167385,31.902105,20.800499,,,,,,
1478536467.59,-2.717526,-1.067595,0.146617,1.068968,1.833706,0.309041,-0.198424,0.876043,0.439518,0.037521,-0.080892,-0.139652,-33.167385,31.902105,20.800499,,,,,,
1478536467.60,-2.695690,-1.078467,0.148750,0.940571,1.932571,0.371747,-0.203854,0.881234,0.426462,0.096935,-0.065377,-0.113565,-33.721104,32.594460,18.734165,,,,,,
1478536467.61,-2.674376,-1.088231,0.148210,0.787198,2.127937,0.439705,-0.209011,0.885807,0.414318,0.095028,-0.145009,-0.018353,-33.721104,32.594460,18.734165,,,,,,
1478536467.62,-2.650460,-1.096771,0.147575,0.683701,2.391188,0.384709,-0.215283,0.889738,0.402516,0.094922,-0.164671,0.029796,-34.190338,33.209156,16.692907,,,,,,
1478536467.63,-2.624892,-1.104117,0.147193,0.579395,2.465157,0.337803,-0.222268,0.893067,0.391188,0.096521,-0.164857,0.118761,-34.445736,33.473415,15.604553,,,,,,
1478536467.64,-2.600037,-1.110519,0.147079,0.500956,2.335064,0.310657,-0.228970,0.895930,0.380635,0.160336,-0.032206,0.203242,-34.445736,33.473415,15.604553,,,,,,
1478536467.65,-2.576828,-1.116200,0.146454,0.433526,2.246944,0.300133,-0.235014,0.898438,0.370914,0.088056,-0.027055,0.189801,-34.949356,33.887821,13.440187,,,,,,
1478536467.66,-2.553456,-1.121343,0.146258,0.398216,2.235885,0.266695,-0.241051,0.900685,0.361472,-0.025032,-0.037495,0.214700,-34.949356,33.887821,13.440187,,,,,,
1478536467.67,-2.530804,-1.126387,0.146215,0.398051,2.115827,0.278531,-0.246568,0.902865,0.352193,-0.151504,-0.046038,0.214427,-35.331165,34.213688,11.472261,,,,,,
1478536467.68,-2.510819,-1.131952,0.146207,0.443720,1.820171,0.322202,-0.250589,0.905243,0.343132,-0.250693,-0.060563,0.172920,-35.331165,34.213688,11.472261,,,,,,
1478536467.69,-2.494045,-1.138548,0.146743,0.546811,1.460547,0.366554,-0.252702,0.908026,0.334111,-0.334258,-0.120779,0.120479,-35.572849,34.521484,9.660233,,,,,,
1478536467.70,-2.478170,-1.146791,0.149943,0.759207,1.162434,0.380785,-0.253356,0.911448,0.324149,-0.405259,-0.173472,0.083352,-35.572849,34.521484,9.660233,,,,,,
1478536467.71,-2.459864,-1.157407,0.158315,1.074160,0.975161,0.376229,-0.253135,0.915765,0.311926,-0.451333,-0.174401,0.034784,-35.566460,34.909363,8.175805,,,,,,
1478536467.73,-2.436515,-1.170843,0.173076,1.423221,0.931324,0.397952,-0.252351,0.921079,0.296533,-0.464705,-0.153364,0.008841,-35.566460,34.909363,8.175805,,,,,,
1478536467.74,-2.408131,-1.186830,0.192528,1.666340,1.019743,0.498085,-0.250775,0.927186,0.278277,-0.427280,-0.141236,0.046537,-35.435440,35.375103,6.588776,,,,,,
1478536467.75,-2.372781,-1.204412,0.218056,1.886475,1.118950,0.476286,-0.249079,0.933629,0.257482,-0.332464,-0.097706,0.099879,-35.435440,35.375103,6.588776,,,,,,
1478536467.76,-2.328579,-1.222698,0.252476,2.076910,1.145300,0.420947,-0.247770,0.940023,0.234450,-0.196474,-0.058096,0.141756,-35.197502,35.932796,4.522224,,,,,,
1478536467.77,-2.276871,-1.240667,0.294351,2.138616,1.159685,0.372537,-0.246662,0.946000,0.210335,-0.144817,0.043074,0.098060,-35.197502,35.932796,4.522224,,,,,,
1478536467.78,-2.222141,-1.257749,0.340896,2.085160,0.929047,0.407546,-0.244910,0.951400,0.186702,-0.079049,0.151429,0.118321,-34.966873,36.378941,2.090706,,,,,,
1478536467.79,-2.172564,-1.274032,0.385764,1.892921,0.552121,0.532553,-0.241059,0.956288,0.165543,-0.098373,0.238338,0.201217,-34.834770,36.553867,0.913295,,,,,,
1478536467.80,-2.127537,-1.288957,0.428894,1.720972,0.291277,0.545512,-0.236121,0.960545,0.146966,-0.122033,0.259532,0.210105,-34.834770,36.553867,0.913295,,,,,,
1478536467.81,-2.082208,-1.302659,0.474660,1.672411,0.068681,0.510547,-0.231038,0.964266,0.129662,-0.118861,0.229490,0.229515,-34.430073,36.936119,-0.879468,,,,,,
1478536467.82,-2.038714,-1.315016,0.520351,1.481808,-0.085854,0.515310,-0.225805,0.967466,0.114110,-0.099497,0.384127,0.207911,-34.430073,36.936119,-0.879468,,,,,,
1478536467.83,-2.001231,-1.325223,0.556878,1.102618,0.356078,0.485205,-0.220937,0.969998,0.101443,-0.140650,0.591297,0.276639,-34.028915,37.253830,-2.159973,,,,,,
1478536467.84,-1.966409,-1.332571,0.583094,0.733626,1.054864,0.360154,-0.217752,0.971758,0.090940,-0.157203,0.665922,0.552783,-34.028915,37.253830,-2.159973,,,,,,
1478536467.85,-1.937969,-1.336310,0.598079,0.345263,1.369618,0.154228,-0.216856,0.972634,0.083406,-0.232988,0.782783,0.537016,-33.641556,37.517323,-3.343149,,,,,,
1478536467.86,-1.925348,-1.337250,0.597950,-0.086883,1.094370,0.076596,-0.217035,0.972852,0.080345,-0.298361,0.978595,0.351173,-33.641556,37.517323,-3.343149,,,,,,
1478536467.87,-1.938691,-1.336708,0.579727,-0.482610,0.156850,0.102653,-0.216435,0.972726,0.083423,-0.160564,0.888251,0.197109,-33.422466,37.601463,-4.421431,,,,,,
1478536467.88,-1.978593,-1.335524,0.545644,-0.830553,-0.884990,0.214559,-0.213993,0.972451,0.092448,-0.066266,0.610053,0.011098,-33.422466,37.601463,-4.421431,,,,,,
1478536467.89,-2.043236,-1.333859,0.494423,-1.185588,-1.552672,0.386276,-0.209015,0.972061,0.106815,-0.023758,0.397766,-0.114185,-33.322395,37.748375,-3.893411,,,,,,
1478536467.90,-2.126123,-1.330663,0.428827,-1.519663,-1.895471,0.469412,-0.202092,0.971306,0.125390,0.020360,0.285514,-0.056939,-33.322395,37.748375,-3.893411,,,,,,
1478536467.91,-2.223254,-1.322641,0.351142,-2.056000,-2.110302,0.338971,-0.195165,0.969367,0.149124,-0.025172,0.214669,0.096238,-33.098495,38.103676,-1.754933,,,,,,
1478536467.93,-2.328125,-1.306132,0.265630,-2.770187,-2.092546,0.070805,-0.190087,0.965180,0.179705,-0.088935,0.160857,0.137266,-33.098495,38.103676,-1.754933,,,,,,
1478536467.94,-2.427731,-1.280066,0.183742,-3.417558,-1.926806,-0.246725,-0.187688,0.958035,0.216663,-0.150691,0.142246,0.254086,-32.895023,38.290390,1.497984,,,,,,
1478536467.95,-2.509259,-1.246450,0.116028,-3.788067,-1.502398,-0.537643,-0.188355,0.947859,0.257071,-0.165069,0.142015,0.389642,-32.911793,38.145390,3.496252,,,,,,
1478536467.96,-2.570646,-1.208451,0.065925,-3.899668,-1.346436,-0.779819,-0.191565,0.935068,0.298246,-0.163538,0.157995,0.451891,-32.911793,38.145390,3.496252,,,,,,
1478536467.97,-2.617954,-1.169848,0.032337,-3.671518,-1.592394,-0.925680,-0.195159,0.920691,0.337995,-0.210603,0.176080,0.379092,-33.214333,37.287766,7.543933,,,,,,
1478536467.98,-2.648055,-1.134650,0.015812,-3.084481,-1.300330,-1.117143,-0.200133,0.906386,0.372035,-0.340120,0.439957,-0.060542,-33.214333,37.287766,7.543933,,,,,,
1478536467.99,-2.659098,-1.103412,0.010560,-2.639443,-0.377962,-1.217046,-0.209052,0.892750,0.399117,-0.343377,0.573375,-0.291940,-33.676918,35.904888,11.277630,,,,,,
1478536468.00,-2.663406,-1.073390,0.007362,-2.624900,-0.164278,-1.176290,-0.219569,0.878823,0.423627,-0.302434,0.536033,-0.452725,-33.676918,35.904888,11.277630,,,,,,
1478536468.01,-2.676105,-1.042675,0.001336,-2.761805,-0.932955,-1.043872,-0.226185,0.863755,0.450297,-0.187282,0.310912,-0.721735,-34.467262,34.350910,13.509392,,,,,,
1478536468.02,-2.700928,-1.011265,-0.007066,-2.909327,-1.923161,-0.899283,-0.226403,0.847504,0.480082,-0.039924,0.066970,-1.012552,-34.467262,34.350910,13.509392,,,,,,
1478536468.03,-2.736466,-0.978552,-0.016657,-3.076425,-2.852359,-0.817328,-0.220016,0.829690,0.513038,0.109222,-0.057305,-1.079520,-34.798740,32.742474,16.354160,,,,,,
1478536468.04,-2.781419,-0.944871,-0.024484,-3.142531,-3.922655,-0.795309,-0.206474,0.810421,0.548257,0.161964,-0.113674,-1.019876,-34.798740,32.742474,16.354160,,,,,,
1478536468.05,-2.834715,-0.910280,-0.030339,-3.256659,-4.847517,-0.749457,-0.185336,0.789676,0.584861,0.113055,0.078198,-1.080726,-34.114143,30.954845,20.700321,,,,,,
1478536468.06,-2.892739,-0.873506,-0.034875,-3.497050,-5.215581,-0.682939,-0.158155,0.766585,0.622362,0.107054,0.267854,-1.100405,-34.114143,30.954845,20.700321,,,,,,
1478536468.07,-2.943518,-0.834946,-0.034945,-3.599839,-4.630789,-0.884395,-0.132084,0.741261,0.658093,0.064869,0.267513,-0.968350,-32.151257,28.802040,26.214876,,,,,,
1478536468.08,-2.980044,-0.795304,-0.028340,-3.641613,-3.676592,-1.146396,-0.112604,0.714076,0.690953,-0.000647,0.115468,-0.549763,-32.151257,28.802040,26.214876,,,,,,
1478536468.09,-3.003807,-0.755544,-0.019009,-3.643335,-2.651076,-1.185809,-0.099977,0.685685,0.721000,-0.171522,0.041046,-0.154533,-30.061085,25.997583,31.159870,,,,,,
1478536468.10,-3.026200,-0.717723,-0.012331,-3.462146,-2.659476,-0.795492,-0.086733,0.657671,0.748296,-0.243894,0.103911,0.061748,-30.061085,25.997583,31.159870,,,,,,
1478536468.11,-3.058551,-0.681679,-0.009962,-3.378185,-3.376762,-0.441217,-0.064409,0.630098,0.773840,-0.108961,0.230742,-0.248052,-28.722980,22.864433,34.679798,,,,,,
1478536468.12,-3.096062,-0.645815,-0.009934,-3.428894,-3.594850,-0.134107,-0.036349,0.601849,0.797782,0.226839,0.044132,-0.917747,-27.637552,21.443895,36.425339,,,,,,
1478536468.14,-3.132692,-0.609006,-0.012826,-3.500645,-3.162474,0.160492,-0.007300,0.572053,0.820184,0.415930,-0.287461,-0.903879,-27.637552,21.443895,36.425339,,,,,,
1478536468.15,3.118212,-0.572925,-0.015309,-3.405936,-2.864773,0.267214,0.019646,0.542093,0.840089,0.246208,-0.398263,-0.404268,-24.897915,18.642776,39.787201,,,,,,
1478536468.16,3.091090,-0.538782,-0.018840,-3.161197,-2.245242,0.445484,0.043330,0.513091,0.857240,-0.227824,-0.229674,-0.361467,-24.897915,18.642776,39.787201,,,,,,
1478536468.17,3.068065,-0.508089,-0.023399,-2.790132,-1.911548,0.587476,0.064181,0.486509,0.871315,-0.304370,-0.085370,-0.207100,-22.479841,15.916454,42.329704,,,,,,
1478536468.18,3.046598,-0.482008,-0.028207,-2.319977,-1.797530,0.600924,0.084045,0.463559,0.882071,-0.259262,0.000476,-0.251013,-22.479841,15.916454,42.329704,,,,,,
1478536468.19,3.026994,-0.460626,-0.031930,-1.879066,-1.677781,0.501019,0.102430,0.444509,0.889899,-0.188154,-0.020513,-0.257605,-20.574028,13.760685,44.020832,,,,,,
1478536468.20,3.009158,-0.444480,-0.033703,-1.378427,-1.614739,0.276609,0.119218,0.429988,0.894929,-0.201233,-0.085781,-0.225220,-20.574028,13.760685,44.020832,,,,,,
1478536468.21,2.992462,-0.434174,-0.033506,-0.840786,-1.589978,0.071777,0.134793,0.420661,0.897148,-0.133771,-0.150550,-0.230629,-18.894217,12.302492,45.190018,,,,,,
1478536468.22,2.976906,-0.429536,-0.032234,-0.326453,-1.492952,-0.067158,0.149050,0.416449,0.896858,-0.086169,-0.109030,-0.256248,-18.894217,12.302492,45.190018,,,,,,
1478536468.23,2.963969,-0.430372,-0.030577,0.182452,-1.211856,-0.187201,0.160579,0.417209,0.894512,0.063329,-0.064212,-0.286800,-17.385067,11.636052,45.965668,,,,,,
1478536468.24,2.955490,-0.436754,-0.028193,0.690076,-0.795547,-0.357377,0.167661,0.423001,0.890483,0.160906,-0.060467,-0.276225,-17.385067,11.636052,45.965668,,,,,,
1478536468.25,2.952187,-0.449049,-0.024788,1.232589,-0.330515,-0.560987,0.169610,0.434109,0.884750,0.193992,-0.111782,-0.226638,-16.376215,11.852129,46.279877,,,,,,
1478536468.26,2.956290,-0.467502,-0.019575,1.771781,0.352753,-0.835783,0.164475,0.450657,0.877414,0.139770,-0.214360,-0.192127,-16.376215,11.852129,46.279877,,,,,,
1478536468.27,2.969440,-0.491367,-0.011920,2.223231,1.101013,-1.108037,0.151037,0.471831,0.868656,0.044123,-0.300414,-0.120350,-16.404388,12.962120,45.971298,,,,,,
1478536468.28,2.991014,-0.518908,-0.001582,2.505509,1.707941,-1.312893,0.130263,0.495932,0.858535,-0.004577,-0.393667,0.027558,-16.990595,13.798740,45.512581,,,,,,
1478536468.29,3.016817,-0.548160,0.009977,2.658968,1.921468,-1.300791,0.106218,0.521118,0.846849,0.010710,-0.426025,0.244124,-16.990595,13.798740,45.512581,,,,,,
1478536468.30,3.041117,-0.575872,0.019478,2.435785,1.784835,-0.950941,0.084129,0.544566,0.834488,0.055534,-0.408656,0.745880,-19.026840,15.699570,44.067940,,,,,,
1478536468.31,3.058839,-0.594533,0.023493,1.451707,1.324211,-0.268106,0.068475,0.560122,0.825575,0.062018,-0.427447,0.764818,-19.026840,15.699570,44.067940,,,,,,
1478536468.32,3.063427,-0.610136,0.022670,1.607813,0.138236,-0.155074,0.063997,0.572979,0.817068,0.061171,-0.268261,1.150660,-20.797915,17.327713,42.634232,,,,,,
1478536468.34,3.050754,-0.626742,0.027415,1.499204,-2.017112,-0.542159,0.073473,0.586509,0.806603,0.595930,0.054330,0.792213,-20.797915,17.327713,42.634232,,,,,,
1478536468.35,3.035588,-0.645790,0.033900,1.900061,-1.387512,-0.711345,0.084500,0.601829,0.794142,-0.369214,1.022637,-0.582945,-20.466692,18.554626,42.276718,,,,,,
1478536468.36,3.039862,-0.668818,0.037756,2.167548,0.502697,-0.445042,0.079676,0.620059,0.780499,-0.730783,0.992978,0.257480,-20.466692,18.554626,42.276718,,,,,,
1478536468.37,3.042067,-0.693406,0.038434,2.417158,0.028653,-0.220034,0.076416,0.639161,0.765267,-0.567322,0.719284,-0.251077,-19.982641,20.034967,41.830307,,,,,,
1478536468.38,3.044608,-0.720781,0.036197,2.631145,0.550666,-0.084714,0.072750,0.659972,0.747760,0.562992,0.467241,-0.610736,-19.982641,20.034967,41.830307,,,,,,
1478536468.39,3.056672,-0.747161,0.036647,2.430482,1.335664,-0.340021,0.062225,0.679559,0.730977,0.952729,0.069556,-0.471456,-20.302923,22.092228,40.622715,,,,,,
1478536468.40,3.079925,-0.771806,0.040713,2.297081,2.105032,-0.454277,0.044166,0.697431,0.715290,0.607766,-0.422040,-0.343296,-20.302923,22.092228,40.622715,,,,,,
1478536468.41,3.107186,-0.795328,0.044350,2.194702,2.411142,-0.312521,0.024082,0.714093,0.699637,0.248669,-0.539090,-0.280340,-21.752651,23.947266,38.779263,,,,,,
1478536468.42,3.134977,-0.817805,0.046481,2.122086,2.502031,-0.144627,0.004524,0.729647,0.683810,0.137810,-0.339418,-0.292651,-21.752651,23.947266,38.779263,,,,,,
1478536468.43,-3.122014,-0.839209,0.047502,1.998234,2.385245,-0.023024,-0.013079,0.744115,0.667924,0.050676,-0.001790,-0.388489,-23.808638,25.545124,36.483910,,,,,,
1478536468.44,-3.097502,-0.858680,0.048147,1.808638,2.264974,0.025327,-0.028801,0.756981,0.652802,-0.093010,0.189430,-0.473435,-24.736292,26.300331,35.311317,,,,,,
1478536468.45,-3.072615,-0.877206,0.048505,1.750726,2.393824,0.102035,-0.044062,0.768955,0.637782,-0.153905,0.288509,-0.442546,-24.736292,26.300331,35.311317,,,,,,
1478536468.46,-3.045294,-0.895343,0.047879,1.703610,2.729082,0.199944,-0.060118,0.780424,0.622354,-0.158495,0.371508,-0.296121,-26.371302,27.625465,33.043434,,,,,,
1478536468.47,-3.015245,-0.913259,0.047821,1.692130,2.878816,0.180080,-0.077014,0.791499,0.606298,-0.036191,0.381840,-0.309866,-26.371302,27.625465,33.043434,,,,,,
1478536468.48,-2.984395,-0.930717,0.049681,1.642656,2.752949,0.112809,-0.093502,0.802048,0.589895,0.131801,0.299850,-0.330679,-28.098761,28.871290,30.453056,,,,,,
1478536468.49,-2.953714,-0.947583,0.052902,1.609261,2.672472,0.100194,-0.109011,0.812007,0.573377,0.167269,0.160451,-0.278760,-28.098761,28.871290,30.453056,,,,,,
1478536468.50,-2.921001,-0.964856,0.056725,1.670740,2.863017,0.132206,-0.124618,0.821967,0.555734,0.064178,0.003915,-0.207513,-29.702393,29.941341,27.780651,,,,,,
1478536468.51,-2.887215,-0.982478,0.061337,1.685042,2.822036,0.162539,-0.139652,0.831875,0.537104,-0.069072,-0.114590,-0.220576,-29.702393,29.941341,27.780651,,,,,,
1478536468.52,-2.855626,-0.999856,0.066221,1.648692,2.517195,0.210086,-0.152445,0.841393,0.518477,-0.199560,-0.147729,-0.285780,-31.181303,30.956671,24.897615,,,,,,
1478536468.53,-2.830895,-1.016461,0.068406,1.506085,2.111387,0.422148,-0.160926,0.850251,0.501176,-0.271279,-0.129975,-0.309968,-31.181303,30.956671,24.897615,,,,,,
1478536468.55,-2.810018,-1.032942,0.066476,1.450302,2.162444,0.632657,-0.166769,0.858810,0.484390,-0.318995,-0.070434,-0.345535,-32.186253,31.935265,22.241055,,,,,,
1478536468.56,-2.790277,-1.049524,0.061843,1.392514,2.285838,0.769556,-0.171373,0.867186,0.467568,-0.212523,-0.031233,-0.202660,-32.186253,31.935265,22.241055,,,,,,
1478536468.57,-2.772918,-1.065878,0.055161,1.333104,2.162302,0.857862,-0.174329,0.875214,0.451232,-0.149356,-0.030365,-0.176360,-32.705391,33.021141,19.759613,,,,,,
1478536468.58,-2.758523,-1.082115,0.047827,1.313933,1.909739,0.877792,-0.175471,0.882953,0.435436,-0.091253,-0.044558,-0.174923,-32.855080,33.581558,18.528442,,,,,,
1478536468.59,-2.746746,-1.098457,0.041483,1.338436,1.567726,0.831182,-0.175012,0.890506,0.419963,-0.070868,-0.054233,-0.227077,-32.855080,33.581558,18.528442,,,,,,
1478536468.60,-2.738821,-1.114045,0.036333,1.270719,1.081987,0.751326,-0.172872,0.897490,0.405742,-0.089701,-0.034865,-0.309505,-32.904022,34.661953,16.320385,,,,,,
1478536468.61,-2.731032,-1.129161,0.034648,1.293037,0.828609,0.605071,-0.170593,0.904054,0.391898,-0.075043,0.001525,-0.372672,-32.904022,34.661953,16.320385,,,,,,
1478536468.62,-2.722980,-1.143811,0.035076,1.283969,0.692170,0.524967,-0.168340,0.910218,0.378370,-0.057902,0.024718,-0.307447,-32.722351,35.567142,14.652868,,,,,,
1478536468.63,-2.713807,-1.158082,0.037759,1.275478,0.642106,0.443518,-0.166398,0.916036,0.364953,-0.059203,0.019221,-0.289529,-32.722351,35.567142,14.652868,,,,,,
1478536468.64,-2.702170,-1.171653,0.042253,1.226504,0.740129,0.370021,-0.165329,0.921394,0.351708,-0.101669,-0.077385,-0.132149,-32.542274,36.288307,13.215126,,,,,,
1478536468.65,-2.689004,-1.184077,0.047515,1.118486,0.806592,0.330546,-0.164927,0.926151,0.339180,-0.091467,-0.091282,-0.028495,-32.542274,36.288307,13.215126,,,,,,
1478536468.66,-2.675940,-1.194891,0.051819,0.944702,0.884838,0.313225,-0.164837,0.930176,0.328027,-0.037281,-0.107071,0.059576,-32.460461,36.850864,11.781885,,,,,,
1478536468.67,-2.662665,-1.204059,0.055189,0.799737,0.988064,0.287313,-0.165239,0.933502,0.318228,0.033617,-0.140763,0.146081,-32.460461,36.850864,11.781885,,,,,,
1478536468.68,-2.648963,-1.212188,0.058189,0.709450,1.051992,0.267760,-0.165990,0.936386,0.309239,0.073980,-0.165802,0.197231,-32.434799,37.272793,10.450039,,,,,,
1478536468.69,-2.635683,-1.219439,0.059804,0.601259,1.146351,0.292814,-0.166787,0.938906,0.301059,0.067163,-0.173434,0.222378,-32.434799,37.272793,10.450039,,,,,,
1478536468.70,-2.623503,-1.225772,0.058981,0.485351,1.256691,0.323619,-0.167494,0.941067,0.293834,0.034406,-0.173092,0.256153,-32.438496,37.602844,9.178806,,,,,,
1478536468.71,-2.611857,-1.231483,0.057055,0.433318,1.283584,0.323640,-0.168186,0.942983,0.287221,-0.015759,-0.163122,0.276759,-32.438496,37.602844,9.178806,,,,,,
1478536468.72,-2.600626,-1.237481,0.055237,0.477033,1.202013,0.348951,-0.168485,0.944963,0.280461,-0.085268,-0.150407,0.245006,-32.409012,37.908039,7.944641,,,,,,
1478536468.73,-2.590436,-1.244338,0.053955,0.560603,1.043973,0.378581,-0.167937,0.947184,0.273203,-0.155977,-0.138941,0.169867,-32.409012,37.908039,7.944641,,,,,,
1478536468.75,-2.580660,-1.252273,0.054215,0.678524,0.856586,0.393258,-0.166596,0.949699,0.265175,-0.224990,-0.157432,0.117591,-32.303139,38.227371,6.756899,,,,,,
1478536468.76,-2.570105,-1.261515,0.057743,0.839761,0.625148,0.383548,-0.164631,0.952553,0.256008,-0.319439,-0.148689,0.141712,-32.207027,38.404121,6.189621,,,,,,
1478536468.77,-2.559011,-1.272376,0.064165,1.007020,0.432908,0.422322,-0.161759,0.955802,0.245512,-0.364578,-0.142890,0.193850,-32.207027,38.404121,6.189621,,,,,,
