Elapsed Time, accel x, accel y, accel z, gyro x, gyro y, gyro z
0.0, 0.001905, 0.004855, 0.022273, -0.080363, 0.011012, -0.024293
9.999990463256836, 5.2E-5, 0.00699, 0.010592, -0.077544, -0.02114, -0.022483
19.999980926513672, -0.005988, 0.003317, 0.002853, -0.079768, -0.053383, -0.013385
29.999971389770508, 0.002776, 0.003987, -0.007681, -0.0859, -0.074454, -0.011892
39.999961853027344, 0.003103, 0.004045, -0.00913, -0.092369, -0.057198, -0.009824
49.99995231628418, -0.003102, 0.008089, -0.00865, -0.083719, -0.034946, -0.002716
59.999942779541016, -0.003724, 0.009127, -0.01063, -0.038324, -0.027184, -0.010777
69.99993324279785, -0.053804, 0.008454, 0.004344, -0.002979, 0.010435, -0.016478
79.99992370605469, -0.09305, 0.156706, -0.006084, -0.010057, 0.010284, -0.015343
89.99991416931152, 0.012855, 0.177245, -0.019619, -0.015821, 0.024158, -0.001421
99.99990463256836, 0.096898, 0.102335, -0.022047, -0.037996, 0.022636, 0.007124
109.9998950958252, 0.090751, 0.084911, -0.013257, -0.033269, -4.54E-4, -0.005585
119.99988555908203, 0.028552, 0.119123, -0.0086, -0.016315, 0.00446, -0.0104
129.99987602233887, -0.054051, 0.174262, -0.007044, -0.009409, 0.007478, 0.012593
139.9998664855957, -0.099728, 0.199875, 0.001679, -0.010843, 0.003075, 0.03964
159.99984741210938, -0.118332, 0.163913, -4.34E-4, -0.008207, -0.002693, 0.036269
169.9998378753662, -0.10156, 0.126911, -7.91E-4, -0.008627, -0.004436, 0.026706
179.99982833862305, -0.06966, 0.091266, -0.004632, -0.007766, -1.82E-4, 0.0093
199.99980926513672, 0.016036, -0.028159, -0.008726, -0.012646, 0.005185, -0.002305
189.99981880187988, -0.016166, 0.040893, -0.007904, -0.012708, 0.00508, -0.002254
209.99979972839355, 0.034019, -0.061511, -0.001765, -0.011264, 0.007873, -0.006809
220.0000286102295, 0.031529, -0.06647, -0.00294, -0.007784, 0.006889, -0.001372
230.00001907348633, 0.02396, -0.068984, -0.004229, -0.006569, 0.01166, -0.001753
240.00000953674316, 0.028696, -0.035557, -0.005948, -0.006243, 0.010768, -0.006882
250.0, 0.024297, 0.029963, -0.007113, -0.007086, 0.009605, -0.017307
259.99999046325684, 0.002416, 0.073096, -0.0057, -0.008505, 0.015013, -0.013351
269.9999809265137, -0.015203, 0.065477, 0.003992, -0.013004, 0.017858, 0.002924
279.9999713897705, -0.003589, 0.038336, 0.004618, -0.011355, 0.010558, 0.011802
289.99996185302734, 0.027283, -0.022139, 0.012216, -0.010391, 0.010172, 0.002261
299.9999523162842, 0.050426, -0.069015, 0.013349, -0.012443, 0.01039, -0.020145
309.999942779541, 0.071859, -0.066445, 0.016074, -0.009821, 0.009007, -0.0297
319.99993324279785, 0.087082, -0.076238, 0.014011, -0.008439, 0.012795, -0.0215
329.9999237060547, 0.092027, -0.066326, 0.013922, -0.012682, 0.012324, -0.018319
339.9999141693115, 0.064085, -0.052859, 0.007172, -0.016285, 0.012734, 0.006487
359.9998950958252, 0.042778, -0.070363, 0.014518, -0.015626, 0.01319, 0.006293
369.99988555908203, 0.032763, -0.080368, 0.019453, -0.010156, 0.007427, 0.002105
379.99987602233887, -0.003991, -0.067004, 0.021151, -0.003762, 0.006151, 0.003789
389.9998664855957, -0.043359, -0.043751, 0.021419, -0.005079, 0.009494, 0.01882
399.99985694885254, -0.075046, -0.031554, 0.018304, -0.007055, 0.005464, 0.02719
409.9998474121094, -0.061227, -0.022773, 0.012226, -0.012411, 0.00102, 0.026404
419.9998378753662, -0.039877, -0.00902, 0.008627, -0.012664, 0.004342, 0.021172
429.99982833862305, -0.02104, 0.002251, 0.003809, -0.015766, 0.007215, 0.006825
439.9998188018799, 0.015329, 0.02974, -0.00471, -0.011898, 0.005248, -3.58E-4
449.9998092651367, 0.020176, 0.052063, -0.008697, -0.01183, 0.00738, 0.003168
459.99979972839355, -0.001026, 0.022233, -0.006046, -0.018714, 0.01173, 0.006088
470.0000286102295, -0.01478, 0.007266, -0.001086, -0.002505, 0.00742, 0.013981
480.0000190734863, -0.032452, 0.005903, 0.001136, -0.002247, 0.007976, 0.008973
490.00000953674316, -0.076473, -0.014242, 0.01188, -0.003289, 0.006996, 0.005132
500.0, -0.092568, -0.051454, 0.013503, -1.46E-4, 0.002352, -0.014088
509.99999046325684, -0.052178, -0.04869, 0.007908, 3.85E-4, 0.001744, -0.013733
519.9999809265137, -0.007175, -1.02E-4, -0.003296, -0.00883, 0.004563, -0.037509
529.9999713897705, 0.014099, 0.019778, -8.63E-4, -0.016844, 0.008663, -0.039958
539.9999618530273, 0.022943, 0.01735, -6.89E-4, -0.007322, 0.010088, -0.032443
549.9999523162842, 0.013917, 0.035856, -0.002356, -0.004099, 0.008238, -0.018869
569.9999332427979, -0.00391, 0.050566, -4.05E-4, -0.009048, 0.012361, -0.005596
579.9999237060547, 0.007427, 0.053121, -0.002734, -0.008817, 0.005709, -0.00341
589.9999141693115, 0.035394, 0.033469, 4.57E-4, -0.007749, 0.00389, -0.00318
599.9999046325684, 0.073452, 0.013922, -0.001114, -0.00356, 0.006774, -0.01688
609.9998950958252, 0.098731, 0.010379, -0.00314, -0.003128, 0.007355, -0.022113
619.999885559082, 0.092283, 0.024009, -0.010821, -0.006494, 0.008456, -0.023434
629.9998760223389, 0.064409, 0.033708, -0.007708, -0.010062, 0.011583, -0.018514
639.9998664855957, 0.034141, 0.027336, -0.008034, -0.007123, 0.010485, 0.009798
649.9998569488525, 0.035567, 0.007581, -0.011356, -0.006759, 0.013038, -0.002682
659.9998474121094, 0.067514, -0.035486, -0.015069, -0.009117, 0.011496, -0.019961
669.9998378753662, 0.078885, -0.036603, -0.021018, -0.008862, 0.012193, -0.020312
679.999828338623, 0.067547, -0.041632, -0.02109, -0.017135, 0.012373, -0.013858
689.9998188018799, 0.042393, -0.0542, -0.01633, -0.012721, 0.013519, 0.001592
699.9998092651367, 0.024761, -0.059337, -0.006685, -0.001896, 0.009506, 0.006087
709.9997997283936, 0.00578, -0.055769, -0.00334, -5.11E-4, 0.011303, 0.007084
720.0000286102295, -0.023315, -0.051062, 0.003523, -0.007578, 0.012026, 0.004187
730.0000190734863, -0.043424, -0.062361, 0.008332, -0.009348, 0.013125, 0.012887
740.0000095367432, -0.068644, -0.06747, 0.009282, -0.002873, 0.011856, 0.016193
750.0, -0.097619, -0.076305, 0.009015, -0.007357, 0.008006, 0.012535
769.9999809265137, -0.121468, -0.09374, 0.005289, -0.011398, 0.006455, 0.01258
779.9999713897705, -0.121444, -0.096224, 0.006558, -0.007981, 0.008374, 0.01637
789.9999618530273, -0.112708, -0.085009, 0.002815, -0.00512, 0.004478, 0.002062
799.9999523162842, -0.081238, -0.077342, -0.005437, -0.007852, 0.003853, -0.029462
809.999942779541, -0.038281, -0.079601, -0.001095, -0.008455, 0.00438, -0.032649
819.9999332427979, -0.002913, -0.080556, -0.009154, -0.007725, 0.004261, -0.032548
829.9999237060547, 0.019605, -0.058168, -0.009202, -0.008523, 0.00688, -0.030829
839.9999141693115, 0.008187, -0.054536, -0.009422, -0.012682, 0.009302, -0.021069
849.9999046325684, -0.019783, -0.034948, -0.006475, -0.00671, 0.001895, -0.012505
859.9998950958252, -0.043732, -0.041255, -0.009166, -0.001305, 0.001197, -0.002649
869.999885559082, -0.047498, -0.042597, 6.14E-4, 3.34E-4, 0.002494, 0.005144
879.9998760223389, -0.053837, -0.040159, 4.81E-4, 0.002059, 0.001046, 9.04E-4
889.9998664855957, -0.047458, -0.046359, 0.00681, -0.001429, -0.001357, -0.003937
899.9998569488525, -0.051159, -0.056278, 0.006925, -0.001688, -0.002392, -0.007176
909.9998474121094, -0.064967, -0.065069, 0.013006, 0.001243, -0.001781, -9.52E-4
919.9998378753662, -0.065076, -0.052731, 0.016475, 0.002284, 8.86E-4, -0.002197
929.999828338623, -0.036101, -0.045086, 0.010632, 0.002487, -0.001349, -0.006456
939.9998188018799, -0.001995, -0.046059, 0.003782, -0.005677, -3.8E-5, -0.008187
949.9998092651367, 0.029189, -0.002565, 0.001045, -0.005144, 0.002405, -0.017019
959.9997997283936, 0.039132, 0.014789, 0.003349, 1.75E-4, 0.00655, -0.009202
980.0000190734863, 0.020134, 0.019631, 0.001768, -0.003652, 0.002701, -0.007038
990.0000095367432, 0.012574, 0.017108, 0.001704, -0.005957, 0.003933, -0.002773
1000.0, 0.011314, 0.017058, 0.006593, -0.001669, 0.005843, 0.002988
1009.9999904632568, -0.003741, 0.005815, 0.009019, -0.002433, 0.003603, 0.004315
1019.9999809265137, 0.010104, 0.012039, 0.014019, -0.002806, 0.003607, 0.00158
1029.9999713897705, 1.63E-4, -0.005387, 0.020302, -0.002538, 0.003081, -8.3E-5
1039.9999618530273, -0.023804, -0.008065, 0.02736, -0.001855, 0.005531, -0.002588
1049.9999523162842, -0.046667, 0.00659, 0.032915, -0.002646, 0.002971, 0.006912
1059.999942779541, -0.046768, 0.017752, 0.029045, -0.003843, 0.003366, 0.007535
1069.9999332427979, -0.032825, 0.011663, 0.0269, -0.008739, 0.002944, -0.003569
1079.9999237060547, -0.012559, 0.004366, 0.026092, -0.007006, 0.004821, -0.012287
1089.9999141693115, 0.007404, 0.030483, 0.022263, -0.006725, 0.004762, -0.010231
1099.9999046325684, 0.003548, 0.036659, 0.019653, -0.007837, 0.005828, -0.007294
1109.9998950958252, -0.003908, 0.022972, 0.023459, -0.007539, 6.2E-5, -0.010686
1119.999885559082, -0.014137, 0.036499, 0.024312, -0.008114, -0.0012, -0.00954
1129.9998760223389, -0.034506, 0.053688, 0.023731, -0.008326, 6.48E-4, -0.003351
1139.9998664855957, -0.052048, 0.037519, 0.0213, -0.009723, 0.00222, 0.005142
1149.9998569488525, -0.067186, 0.036134, 0.02724, -0.007733, 0.003759, 0.009426
1159.9998474121094, -0.076005, 0.033592, 0.028384, -0.008066, 0.002459, 0.002879
1169.9998378753662, -0.063239, 0.018793, 0.031276, -0.013529, -1.81E-4, -0.007117
1189.9998188018799, -0.036288, -0.028047, 0.032455, -0.011547, 0.00137, -0.008847
1199.9998092651367, -0.00837, -0.043857, 0.020861, -0.007937, 0.003043, -0.020799
1209.9997997283936, 0.009274, -0.040001, 0.016145, -0.011774, 0.005939, -0.02061
1220.0000286102295, -9.96E-4, -0.023932, 0.008372, -0.012524, 0.003772, -0.01687
1230.0000190734863, -0.027894, 0.016695, 0.009755, -0.011581, 0.004948, -0.004849
1240.0000095367432, -0.040472, 0.010429, 0.009682, -0.009796, 0.00363, -1.29E-4
1250.0, -0.030457, 0.019168, 0.006004, -0.01096, 0.00608, -0.004864
1259.9999904632568, -0.026503, 6.09E-4, 0.008831, -0.010983, 0.004548, -0.005742
1269.9999809265137, -0.021099, -0.038934, 0.008354, -0.008401, 0.003414, -0.005015
1279.9999713897705, -0.044913, -0.058919, 0.014481, -0.003331, 0.002824, 0.001395
1289.9999618530273, -0.071342, -0.070182, 0.010612, -0.007372, -8.63E-4, 0.002839
1299.9999523162842, -0.087959, -0.048064, 0.014907, -0.007007, -4.68E-4, -0.004328
1309.999942779541, -0.089463, -0.023269, 0.005884, -0.005917, 0.003114, -0.008919
1319.9999332427979, -0.070895, 0.017662, 0.004238, -0.00706, 8.49E-4, -0.019406
1329.9999237060547, -0.040667, 0.026484, 0.005755, -0.004955, 0.004204, -0.020131
1339.9999141693115, -0.024286, 0.029101, -1.82E-4, -0.006314, 0.004608, -0.017104
1349.9999046325684, -0.024261, 0.026607, 0.002313, -0.006626, 0.001776, -0.015297
1359.9998950958252, -0.027972, 0.019091, 0.010972, -0.00759, 6.91E-4, -0.015067
1369.999885559082, -0.036698, 0.005439, 0.009852, -0.006651, 6.1E-4, -0.012079
1389.9998664855957, -0.03293, 0.007901, 0.013546, -0.003744, -4.37E-4, -0.012702
1399.9998569488525, -0.026558, 5.46E-4, 0.010085, -0.002806, 0.002686, -0.009525
1409.9998474121094, -0.039031, -0.016869, 0.012653, -0.005687, 0.001612, -3.67E-4
1419.9998378753662, -0.054004, -0.036774, 0.015228, -0.00772, 0.001463, 0.009911
1429.999828338623, -0.070669, -0.00967, 0.014533, -0.010854, 0.001655, 0.010796
1439.9998188018799, -0.075874, 0.006441, 0.005604, -0.01308, 5.3E-4, 0.011614
1449.9998092651367, -0.080872, 0.001401, 0.011753, -0.01366, -5.63E-4, 0.004732
1459.9997997283936, -0.063162, -9.96E-4, 0.014505, -0.009576, -0.002628, -0.002703
1470.0000286102295, -0.043069, 0.010348, 0.002342, -0.012678, -0.003233, -0.00783
1480.0000190734863, -0.025352, 0.006723, 0.00389, -0.01166, 6.4E-5, -0.00419
1490.0000095367432, -0.017476, -0.026614, 0.002117, -0.012491, 2.41E-4, -0.005448
1500.0, -8.58E-4, -0.048775, 0.001508, -0.008557, -0.001869, -0.01063
1509.9999904632568, 0.00554, -0.057454, 0.007882, -0.007517, -0.00364, -0.018731
1519.9999809265137, -8.27E-4, -0.052502, 0.002801, -0.010879, -0.003243, -0.018225
1529.9999713897705, -0.012256, -0.043997, 0.012303, -8.88E-4, -0.005898, 9.77E-4
1539.9999618530273, -0.007011, -0.064988, 0.012731, 0.005548, -0.004418, -0.003271
1549.9999523162842, -0.008488, -0.042689, 0.004982, -0.022968, -0.0024, -0.012284
1559.999942779541, -0.009603, -0.058802, 0.006471, -0.021489, -0.008653, -0.015196
1569.9999332427979, 0.018571, -0.101908, 0.005155, -0.00412, -0.009917, -0.029832
1579.9999237060547, 0.057899, -0.121438, 0.002375, -0.004633, -0.010976, -0.035168
1599.9999046325684, 0.060307, -0.109053, 9.78E-4, -0.009949, -0.007742, -0.028345
1609.9998950958252, 0.013609, -0.113057, 0.001601, -0.009119, -0.005389, -0.005362
1619.999885559082, -0.050461, -0.150557, 0.002535, -0.005876, -0.010359, 0.016595
1629.9998760223389, -0.099484, -0.176751, -0.006316, -0.004589, -0.009223, 0.022975
1639.9998664855957, -0.136281, -0.158389, -0.012058, -0.018569, -0.00366, 0.016976
1649.9998569488525, -0.13665, -0.118714, -0.026219, -0.020021, 5.34E-4, 0.022034
1659.9998474121094, -0.131835, -0.091493, -0.026603, -0.022496, 0.001835, 0.029599
1669.9998378753662, -0.094058, -0.07769, -0.025058, -0.019831, 0.004767, 0.022574
1679.999828338623, -0.022075, -0.077161, -0.036292, -0.013006, 0.002082, 0.011671
1689.9998188018799, 0.045082, -0.100254, -0.036159, -0.013441, 0.004678, -0.008984
1699.9998092651367, 0.079357, -0.119873, -0.032873, -0.014596, 0.007672, -0.017859
1709.9997997283936, 0.061804, -0.134846, -0.030417, -0.009025, 0.005244, -0.005331
1720.0000286102295, 0.022388, -0.105475, -0.022893, -0.008923, 0.007094, 0.009201
1730.0000190734863, -0.037345, -0.066214, -0.02932, -0.008985, 0.008346, 0.014877
1740.0000095367432, -0.079444, -0.023034, -0.047825, -0.007674, 0.008671, 0.015427
1750.0, -0.084894, 0.020218, -0.048629, -0.008467, 0.009618, 0.003831
1759.9999904632568, -0.058697, 0.053848, -0.058627, -0.004203, 0.01467, -0.005161
1769.9999809265137, -0.024653, 0.057839, -0.06801, -0.006209, 0.008119, -0.023551
1779.9999713897705, 0.004454, 0.0494, -0.073574, -0.008259, 0.005595, -0.034253
1799.9999523162842, 0.023487, 0.037192, -0.079221, -0.007237, 0.007338, -0.035372
1809.999942779541, 0.039902, 0.036072, -0.081415, -0.00205, 0.004779, -0.029063
1819.9999332427979, 0.043552, 0.04972, -0.084043, -0.001464, 0.00773, -0.02312
1829.9999237060547, 0.03714, 0.059553, -0.081845, -0.005228, 0.002595, -0.025083
1839.9999141693115, 0.039671, 0.058302, -0.078107, 0.002204, 0.00285, -0.026815
1849.9999046325684, 0.042412, 0.033589, -0.077651, 0.008325, 0.002607, -0.021376
1859.9998950958252, 0.061774, -0.01207, -0.075374, 0.006528, -0.002356, -0.027469
1869.999885559082, 0.062082, -0.046679, -0.077238, 1.18E-4, -0.002234, -0.011319
1879.9998760223389, 0.067235, -0.058955, -0.084315, -3.15E-4, -0.001436, -0.010299
1889.9998664855957, 0.069676, -0.05024, -0.089333, 0.001697, -1.72E-4, -0.001784
1899.9998569488525, 0.064455, -0.031709, -0.090948, -5.44E-4, 0.001752, 0.003867
1909.9998474121094, 0.037478, 0.017655, -0.098303, -0.003608, 3.16E-4, 0.012425
1919.9998378753662, 0.02966, 0.043631, -0.104986, -0.003883, 8.38E-4, 0.012558
1929.999828338623, 0.006916, 0.044729, -0.105331, -0.007087, 0.001216, 0.012719
1939.9998188018799, 0.00338, 0.017466, -0.101243, 3.69E-4, 0.002167, 0.009387
1949.9998092651367, 0.002295, -0.002309, -0.103378, -6.86E-4, -0.001816, 0.003689
1959.9997997283936, 0.002266, 0.001376, -0.100987, -0.005179, -9.94E-4, 0.0018
1970.0000286102295, -0.012859, -0.002419, -0.102365, -0.00805, 0.00263, 0.007503
1980.0000190734863, -0.02156, -0.017358, -0.097332, -0.005131, 0.002953, 0.007494
1990.0000095367432, -0.035131, -0.05331, -0.096919, -0.005322, 0.001836, 7.54E-4
2009.9999904632568, -0.060208, -0.073305, -0.090809, -0.007254, 1.91E-4, -4.5E-5
2019.9999809265137, -0.052632, -0.07324, -0.093153, -0.006573, 0.001517, -9.98E-4
2029.9999713897705, -0.040263, -0.045921, -0.098338, -0.008064, 0.004006, -0.01738
2039.9999618530273, -0.026849, 0.00611, -0.100245, -0.008703, 0.003481, -0.01772
2049.999952316284, -0.010641, 0.028475, -0.101612, -0.006401, 0.006244, -0.013384
2059.999942779541, 0.003239, 0.029753, -0.097749, -0.013642, 0.002864, -0.015109
2069.999933242798, -0.009362, 0.025948, -0.096635, -0.013456, -3.92E-4, -0.014813
2079.9999237060547, -0.027025, 0.023352, -0.095617, -0.009728, -3.78E-4, -0.007084
2089.9999141693115, -0.059876, 0.025535, -0.085088, -0.005292, -6.9E-5, -0.003836
2099.9999046325684, -0.080156, 0.034017, -0.079391, -0.004862, -0.002101, -0.002156
2109.999895095825, -0.078865, 0.031531, -0.076878, 7.38E-4, -0.003345, -7.67E-4
2119.999885559082, -0.058451, 0.009377, -0.074983, -0.001448, -0.00305, -0.001681
2129.999876022339, -0.027723, -0.03621, -0.073767, -0.006749, -0.003757, -0.011819
2139.9998664855957, -0.004808, -0.055879, -0.071876, -0.005857, -0.005026, -0.016623
2149.9998569488525, 0.007725, -0.045896, -0.074313, -0.007998, -0.003602, -0.022114
2159.9998474121094, 0.002497, -0.027381, -0.074697, -0.008925, -2.94E-4, -0.022792
2169.999837875366, -0.005189, -0.016253, -0.079902, -0.008, 0.00636, -0.014421
2179.999828338623, -0.013975, -0.022489, -0.079924, -0.008683, 0.003629, -0.009247
2189.99981880188, -0.02899, -0.038663, -0.079865, -0.007492, 0.002776, -0.002411
2209.9997997283936, -0.034018, -0.042369, -0.084777, -0.010081, 1.85E-4, -0.005279
2220.0000286102295, -0.046539, -0.054838, -0.082291, -0.008006, 0.002592, -0.004623
2230.0000190734863, -0.062752, -0.079606, -0.090689, -0.010228, 0.004246, -0.002386
2240.000009536743, -0.08278, -0.10308, -0.108973, -0.014779, 0.007027, -8.61E-4
2250.0, -0.118054, -0.117975, -0.13007, -0.028455, 0.015215, -8.59E-4
2259.999990463257, -0.217522, -0.159204, -0.1541, -0.031893, 0.020844, 2.0E-4
2269.9999809265137, -0.37903, -0.18241, -0.159707, -0.028634, 0.023034, -0.00807
2279.9999713897705, -0.514435, -0.159612, -0.174304, -0.010943, 0.018757, -0.017074
2289.9999618530273, 0.237494, 0.109032, 0.033162, -0.019589, 0.021122, -0.031193
2299.999952316284, 1.137122, 0.913766, -0.01894, -0.033989, 0.024207, -0.025265
2309.999942779541, 0.836675, 0.460121, -0.111283, -0.172917, 0.052625, -0.017588
2319.999933242798, 0.76549, -0.162824, 0.090758, -0.101089, 0.077198, -0.23615
2329.9999237060547, 0.510322, -0.196831, -0.163775, 0.005561, -0.07057, -0.086901
2339.9999141693115, 0.204399, -0.344958, -0.413434, -0.079064, -0.033825, 0.15649
2349.9999046325684, -0.083267, -0.401181, -0.550321, -0.236574, 0.002837, 0.228611
2359.999895095825, -0.219711, -0.40764, -0.614731, -0.173342, -0.043315, 0.154993
2369.999885559082, -0.228541, -0.415924, -0.665004, -0.149341, -0.023355, 0.078189
2379.999876022339, -0.185695, -0.409226, -0.697605, -0.140557, 0.011978, 0.016751
2389.9998664855957, -0.140851, -0.337349, -0.683454, -0.113673, 0.037076, -0.014022
2399.9998569488525, -0.010985, -0.304778, -0.64043, -0.082373, 0.053894, -0.009416
2419.999837875366, 0.42551, -0.360385, -0.481109, -0.033178, 0.108619, -0.017147
2429.999828338623, 1.074344, -0.733605, -0.488739, -0.064024, 0.041088, -0.025051
2439.99981880188, 1.509182, -1.46915, -0.503159, -0.118926, 0.12028, -0.067132
2449.9998092651367, 1.675711, -2.145829, -0.50405, -0.094531, 0.118665, -0.012605
2459.9997997283936, 1.528267, -2.583335, -0.349165, -0.046158, 0.131268, 0.073556
2470.0000286102295, 0.685703, -2.861671, -0.354178, -0.071515, 0.107322, 0.158315
2480.0000190734863, -0.625903, -2.554249, -0.497268, -0.120043, 0.151083, 0.190557
2490.000009536743, -1.567784, -1.340807, -0.470027, -0.02434, 0.113217, 0.299635
2500.0, -1.797458, 0.175136, -0.463366, -0.108035, 0.073645, 0.368838
2509.999990463257, -1.877355, 1.737352, -0.557119, -0.236637, 0.046214, 0.279297
2519.9999809265137, -1.903897, 1.871241, -0.614953, -0.159097, 0.107623, 0.132937
2529.9999713897705, -1.627347, 1.320163, -0.620055, -0.120001, 0.079145, -0.00119
2539.9999618530273, -1.180008, 0.591343, -0.689597, -0.07867, 0.053467, -0.038643
2549.999952316284, -0.639938, -0.199675, -0.795999, -0.020569, 0.082746, -0.152684
2559.999942779541, -0.248208, -0.63512, -0.792804, -0.03284, 0.102912, -0.154335
2569.999933242798, -0.115572, -0.902253, -0.696849, -0.02713, 0.092694, -0.096466
2579.9999237060547, -0.053756, -1.024844, -0.633791, -0.005351, 0.109614, -0.024274
2589.9999141693115, 0.104562, -1.209508, -0.619803, -0.025483, 0.132588, 0.047462
2599.9999046325684, 0.272406, -1.467245, -0.586048, -0.048695, 0.129476, 0.081528
2619.999885559082, 0.531991, -1.662028, -0.473537, -0.047749, 0.143211, 0.122695
2629.999876022339, 0.921537, -1.837656, -0.33985, -0.03785, 0.203685, 0.153621
2639.9998664855957, 1.369149, -2.151291, -0.223845, -0.020325, 0.253699, 0.176924
2649.9998569488525, 1.709209, -2.586647, -0.122056, 0.002144, 0.300163, 0.225077
2659.9998474121094, 1.861514, -3.207721, 0.018178, 0.036611, 0.342976, 0.341959
2669.999837875366, 1.866598, -3.87176, 0.307866, 0.068134, 0.397608, 0.494699
2679.999828338623, 1.796432, -4.446556, 0.666095, 0.093693, 0.451841, 0.630641
2689.99981880188, 1.691094, -4.909839, 0.974102, 0.164546, 0.568515, 0.770328
2699.9998092651367, 1.576786, -5.512106, 1.18621, 0.199762, 0.638648, 0.785862
2709.9997997283936, 1.408175, -6.242888, 1.49414, 0.220357, 0.644762, 0.781756
2720.0000286102295, 1.114537, -6.965252, 1.887201, 0.232047, 0.648292, 0.740693
2730.0000190734863, 0.903602, -7.467376, 2.32557, 0.226253, 0.674508, 0.643828
2740.000009536743, 0.715104, -7.542336, 2.573084, 0.179108, 0.675114, 0.472051
2750.0, 0.342441, -7.106394, 2.670726, 0.099558, 0.65551, 0.291085
2759.999990463257, -0.231743, -6.314352, 2.777844, 0.042639, 0.597952, 0.21373
2769.9999809265137, -0.793077, -5.272081, 2.844131, 0.028403, 0.523836, 0.191623
2779.9999713897705, -1.373952, -4.171346, 2.85641, 0.049912, 0.522028, 0.189898
2789.9999618530273, -1.983159, -3.14764, 2.89043, 0.0964, 0.517639, 0.218748
2799.999952316284, -2.504852, -2.570622, 3.016654, 0.164123, 0.500084, 0.271118
2809.999942779541, -2.878825, -2.394112, 3.22781, 0.2271, 0.515186, 0.278545
2829.9999237060547, -3.058043, -2.64072, 3.598548, 0.278754, 0.569016, 0.227648
2839.9999141693115, -2.938477, -3.25334, 3.885341, 0.282707, 0.53722, 0.077829
2849.9999046325684, -2.55157, -3.835883, 4.023406, 0.229675, 0.454773, -0.161589
2859.999895095825, -2.015523, -4.258587, 4.376781, -0.118684, 0.308973, -0.601046
2869.999885559082, -1.31277, -4.288789, 4.50027, -0.27063, 0.149062, -0.823191
2879.999876022339, -0.615141, -3.810744, 4.18462, -0.381839, 0.187222, -0.810329
2889.9998664855957, -0.016947, -3.245874, 3.767953, -0.511248, 0.113637, -0.831133
2899.9998569488525, 0.449436, -2.89322, 3.491554, -0.600337, -0.007689, -0.793267
2909.9998474121094, 0.733249, -2.729446, 3.338354, -0.674169, -0.071005, -0.738592
2919.999837875366, 0.840113, -2.418088, 3.155578, -0.756229, -0.118626, -0.662869
2929.999828338623, 0.677837, -1.944692, 3.069204, -0.811795, -0.165242, -0.536968
2939.99981880188, 0.269632, -1.376213, 2.970316, -0.839466, -0.191293, -0.420364
2949.9998092651367, -0.258298, -0.712372, 2.769974, -0.889813, -0.236801, -0.334135
2959.9997997283936, -0.727008, -0.043733, 2.483326, -0.945644, -0.302398, -0.265074
2970.0000286102295, -1.079694, 0.646586, 2.201668, -0.992695, -0.330452, -0.228954
2980.0000190734863, -1.276893, 1.189132, 1.956636, -1.0105, -0.314328, -0.21773
2990.000009536743, -1.151017, 1.468746, 1.593156, -0.957507, -0.298383, -0.238794
3000.0, -0.909053, 1.509889, 1.434063, -0.869916, -0.271886, -0.258175
3009.999990463257, -0.573763, 1.017954, 1.350317, -0.624554, -0.276828, -0.388337
3029.9999713897705, -0.089221, 0.497653, 1.217694, -0.65004, -0.216899, -0.43374
3039.9999618530273, 0.414017, 0.133979, 1.002978, -0.641254, -0.190322, -0.452788
3049.999952316284, 0.773433, -0.11637, 0.738894, -0.663522, -0.218589, -0.449154
3059.999942779541, 0.967465, -0.231996, 0.511847, -0.68927, -0.261877, -0.399894
3069.999933242798, 1.069349, -0.211137, 0.311827, -0.677621, -0.263851, -0.327567
3079.9999237060547, 1.115854, -0.071931, 0.116369, -0.649384, -0.25869, -0.235678
3089.9999141693115, 1.091181, 0.118625, -0.060134, -0.619077, -0.241074, -0.148658
3099.9999046325684, 0.993908, 0.243918, -0.175261, -0.562375, -0.214475, -0.073037
3109.999895095825, 0.874887, 0.270685, -0.208092, -0.487582, -0.186971, -0.005256
3119.999885559082, 0.805899, 0.218237, -0.197165, -0.418133, -0.16515, 0.035336
3129.999876022339, 0.817871, 0.152682, -0.1873, -0.361419, -0.125334, 0.038887
3139.9998664855957, 0.898641, 0.157109, -0.214417, -0.325311, -0.073158, 0.018892
3149.9998569488525, 1.022388, 0.167422, -0.176011, -0.302436, -0.009041, -9.82E-4
3159.9998474121094, 1.098806, 0.232521, -0.215253, -0.302055, 0.042233, -0.044075
3169.999837875366, 1.144703, 0.027415, -0.349718, -0.272186, 0.071994, -0.073674
3179.999828338623, 1.147309, -0.399341, -0.335118, -0.130025, 0.08171, -0.07437
3189.99981880188, 1.171502, -0.68812, -0.242816, -0.094052, 0.076031, -0.051907
3199.9998092651367, 1.219142, -0.781028, -0.190275, -0.091686, 0.079927, -0.04917
3209.9997997283936, 1.289634, -0.766217, -0.282718, -0.155323, 0.052362, -0.035919
3220.0000286102295, 1.352068, -0.711094, -0.467941, -0.220648, 0.024779, 0.005158
3240.000009536743, 1.429187, -0.740177, -0.629456, -0.249755, 0.027409, 0.008159
3250.0, 1.490021, -0.638637, -0.748031, -0.250694, 0.018544, -0.038885
3259.999990463257, 0.718196, -0.20265, -0.647567, -0.180754, 0.022111, 0.10033
3269.9999809265137, -1.020504, -0.92285, -0.223893, -0.049747, 0.025429, 0.374679
3279.9999713897705, -1.689307, -0.427937, -0.145013, 0.322661, -0.074789, 1.166004
3289.9999618530273, -1.404688, 0.77067, -0.267839, 0.160118, 0.029549, 1.166802
3299.999952316284, -0.763683, 1.24464, -0.43461, -0.087371, 0.122698, 0.629963
3309.999942779541, 0.117394, 0.982331, -0.813607, -0.215969, 0.005215, 0.12466
3319.999933242798, 0.800949, -0.0619, -1.145463, -0.346259, -0.080963, -0.317254
3329.9999237060547, 1.533011, -0.974054, -1.121949, -0.325263, -0.077896, -0.592822
3339.9999141693115, 2.042884, -1.173232, -0.896597, -0.041417, -0.02699, -0.390051
3349.9999046325684, 2.145899, -1.357682, -0.655291, 0.082364, 0.059098, -0.178871
3359.999895095825, 1.992051, -1.640922, -0.467536, 0.163048, 0.113273, -0.016841
3369.999885559082, 1.940772, -1.964799, -0.373278, 0.138949, 0.089249, 0.026482
3379.999876022339, 2.040953, -2.007507, -0.369884, 0.041439, 0.007715, -0.065193
3389.9998664855957, 2.045782, -1.84299, -0.371365, -0.084202, -0.029857, -0.076877
3399.9998569488525, 1.883494, -2.065965, -0.442305, -0.158193, -0.056381, -0.128379
3409.9998474121094, 1.50888, -2.141524, -0.548233, -0.207082, -0.160351, -0.188924
3419.999837875366, 1.234366, -2.405999, -0.763588, -0.143032, -0.169132, 0.008968
3439.99981880188, 1.371665, -1.439529, -1.178971, -0.123076, -0.167644, -0.026832
3449.9998092651367, 1.201306, -0.612373, -1.13407, -0.188554, -0.035981, 0.116639
3459.9997997283936, 0.624442, -1.043403, -0.881246, -0.065542, -0.122392, 0.086447
3470.0000286102295, 0.441301, -1.008492, -0.607301, -0.02529, -0.222461, -0.058193
3480.0000190734863, 0.390504, -0.410744, -0.549443, 0.056709, -0.21843, 0.023088
3490.000009536743, 0.25422, -0.045538, -0.838434, 0.133601, -0.101637, 0.050231
3500.0, 0.080579, -0.010122, -1.054941, 0.184413, -0.03803, 0.054619
3509.999990463257, 0.12879, -0.178911, -1.095549, 0.250388, -0.101785, 0.030756
3519.9999809265137, 0.411071, -0.225388, -0.955779, 0.249789, -0.01717, -0.012269
3529.9999713897705, 1.022353, -0.691841, -0.34793, 0.305537, 0.092953, -0.122056
3539.9999618530273, 1.705622, -1.447788, 0.178768, 0.402808, 0.154076, -0.254048
3549.999952316284, 2.328327, -1.834143, 0.390512, 0.522261, 0.234609, -0.279296
3559.999942779541, 2.512261, -1.756571, 0.561108, 0.573577, 0.28838, -0.234666
3569.999933242798, 2.362673, -1.508268, 0.92392, 0.545555, 0.304936, -0.094824
3579.9999237060547, 2.008075, -1.070037, 1.34802, 0.530597, 0.323368, 0.085898
3589.9999141693115, 1.380348, -0.439392, 1.929275, 0.480157, 0.371202, 0.209627
3599.9999046325684, 0.708465, 0.41429, 2.135738, 0.457044, 0.451081, 0.337647
3609.999895095825, 0.076391, 1.570317, 2.007755, 0.395944, 0.532492, 0.443264
3619.999885559082, -0.44273, 1.992164, 2.059368, 0.031927, 0.341706, 0.357075
3629.999876022339, -0.601366, 2.067069, 2.009209, -0.076561, 0.314351, 0.28625
3649.9998569488525, -0.542534, 1.959084, 1.805837, -0.15404, 0.438932, 0.157509
3659.9998474121094, -0.392292, 1.505075, 1.493112, -0.325947, 0.391698, -0.008623
3669.999837875366, -0.169379, 0.836358, 1.176476, -0.466712, 0.293081, -0.133443
3679.999828338623, 0.088456, 0.113644, 1.127396, -0.418171, 0.293279, -0.261206
3689.99981880188, 0.278514, -0.492325, 1.263014, -0.265682, 0.266771, -0.262443
3709.9997997283936, 0.299149, -0.688268, 1.196712, -0.21692, 0.27482, -0.27401
3699.9998092651367, 0.314898, -0.738584, 1.308169, -0.212798, 0.287087, -0.267703
3720.0000286102295, 0.458655, -0.056008, 0.979845, -0.309413, 0.22965, -0.204052
3730.0000190734863, 0.091719, 0.553822, 0.846513, -0.448952, 0.143483, -0.158519
3740.000009536743, -0.736335, 0.078259, 0.922306, -0.508339, 0.097007, -0.234219
3750.0, -1.418576, -0.129827, 1.351361, -0.404612, -0.041039, -0.201567
3759.999990463257, -1.660905, -0.250151, 1.660186, 0.078114, -0.197132, 0.259631
3769.9999809265137, -0.755162, 0.066891, 0.936944, 0.021091, -0.348139, 0.080534
3779.9999713897705, 0.695831, 0.980387, 0.118294, -0.247507, -0.040003, -0.187991
3789.9999618530273, 0.112663, -0.136741, 0.483178, -0.457321, 0.237327, -0.475839
3799.999952316284, -0.448842, -2.091194, 1.021948, -0.025829, -0.391525, -0.508677
3809.999942779541, -0.436633, -2.80586, 1.599583, 0.537533, -0.553091, 0.415466
3819.999933242798, 0.175638, -2.679995, 1.191756, 0.534303, -0.500381, 0.150788
3829.9999237060547, 0.497824, -2.538892, 1.260254, 0.304458, -0.288128, -0.022638
3839.9999141693115, 0.320523, -3.252088, 1.821638, 0.065075, 0.029056, -0.174582
3859.999895095825, 0.520161, -3.799869, 1.956412, 0.381097, -0.474298, -0.070924
3869.999885559082, 0.854748, -3.94253, 1.809117, 0.338896, -0.609515, -0.134065
3879.999876022339, 0.785351, -4.105309, 1.705388, 0.160703, -0.312801, -0.219348
3889.9998664855957, 0.42904, -3.950667, 1.73688, 0.036752, -0.298639, -0.328051
3899.9998569488525, 0.165383, -2.335541, 1.543918, 0.082486, -0.364752, -0.156687
3909.9998474121094, 0.1078, -0.166009, 1.4525, 0.29935, -0.243263, 0.252923
3919.999837875366, 0.290195, 0.320979, 1.320587, 0.480631, -0.016645, 0.716698
3929.999828338623, 0.450522, 0.160648, 1.091355, 0.326985, -0.167719, 0.098711
3949.9998092651367, 0.296699, 0.379232, 0.872042, 0.201495, -0.111692, 0.093229
3939.99981880188, 0.434552, 0.090106, 0.940235, 0.206148, -0.103688, 0.088633
3959.9997997283936, 0.305258, 0.402076, 0.809231, 0.152126, -0.160652, 0.13428
3970.0000286102295, 0.329183, 0.134831, 0.841069, 0.010986, -0.068696, 0.032129
3980.0000190734863, 0.339818, -0.210932, 0.789416, -0.027821, -0.007878, -0.022756
3990.000009536743, 0.430512, -0.467316, 0.75458, -0.029567, -0.022691, -0.004254
4000.0, 0.586968, -0.736636, 0.687798, -0.045307, -0.086065, -0.028389
4009.999990463257, 0.529274, -0.640628, 0.700062, -0.038117, 0.012553, -0.100052
4019.9999809265137, 0.187485, -0.386309, 0.945937, -0.054875, 0.006347, -0.111027
4029.9999713897705, -0.19705, 0.112204, 1.093862, -0.019487, 0.012449, -0.08146
4039.9999618530273, -0.524519, 0.701625, 1.062014, 0.07709, 0.080566, 0.010388
4059.999942779541, -0.634521, 1.106992, 0.868389, -0.002562, 0.165058, 0.042616
4069.999933242798, -0.562698, 1.368285, 0.585384, -0.197632, 0.156684, 0.16693
4079.9999237060547, -0.482186, 1.507162, 0.307023, -0.348887, 0.117935, 0.239632
4089.9999141693115, -0.297587, 1.458186, 0.088527, -0.179328, 0.003921, 0.183289
4099.999904632568, 0.068981, 1.247905, -0.228868, -0.163779, 0.077288, 0.04535
4109.999895095825, 0.227102, 0.681337, -0.095603, -0.248465, 0.137275, -0.261096
4119.999885559082, 0.243622, 0.005279, 0.161339, -0.0361, 0.138048, -0.287353
4129.999876022339, 0.371991, -0.793355, 0.07733, 0.155518, 0.131217, -0.149395
4139.999866485596, 0.645606, -1.618976, -0.221208, 0.042049, 0.19531, -0.073172
4149.9998569488525, 0.827656, -2.226852, -0.449929, -0.135905, 0.119226, 0.101902
4159.999847412109, 0.80952, -2.753945, -0.576204, -0.138454, 0.121304, 0.088301
4169.999837875366, 0.662452, -3.100702, -0.47681, -0.133778, 0.018882, 0.14159
4179.999828338623, 0.403173, -3.314377, -0.254958, -0.133995, -0.025451, 0.158982
4189.99981880188, 0.286128, -3.331806, -0.033141, -0.029418, -0.009073, 0.16633
4199.999809265137, 0.289072, -3.063151, 0.224828, 0.051557, 0.091426, 0.129337
4209.999799728394, 0.855614, -2.407192, 0.419393, 0.140232, 0.170425, -0.136662
4220.0000286102295, 1.828699, -1.207213, 0.332239, 0.181389, 0.011054, -0.299994
4230.000019073486, 2.524094, 0.083017, 0.050678, 0.17985, -0.309155, -0.494222
4240.000009536743, 2.770238, 1.195473, -0.148515, 0.201445, -0.372013, -0.660998
4250.0, 2.750071, 2.023141, -0.203251, 0.220091, -0.241802, -0.564113
4269.999980926514, 1.226373, 2.391423, 0.201473, 0.281301, -0.272671, -0.452215
4279.9999713897705, -0.774673, 1.961806, 1.02609, 0.557965, -0.146546, -0.116592
4289.999961853027, -0.741477, 2.567615, 1.651646, 1.035715, 0.208605, 1.347677
4299.999952316284, -0.728875, 2.55268, 2.547391, 1.096849, -0.068856, 0.902596
4319.999933242798, 0.044206, 1.178097, 1.714653, 0.273381, -0.28747, 0.280199
4309.999942779541, -0.367784, 1.908393, 1.781003, 0.283802, -0.276723, 0.271373
4329.999923706055, -1.047862, 1.599013, 2.198307, -0.763719, 0.577745, -0.409151
4339.9999141693115, -1.581578, 2.644888, 2.150871, -0.43868, -0.072573, -0.028623
4349.999904632568, -1.524137, 3.414686, 2.121535, -0.44864, 0.09463, 0.082302
4359.999895095825, -1.071881, 3.269102, 2.110898, -0.621312, 0.277218, -0.240843
4369.999885559082, -0.413042, 2.047649, 1.952155, -0.537749, 0.307813, -0.243181
4379.999876022339, 0.165561, 0.778722, 1.939002, -0.412872, 0.257557, -0.187423
4389.999866485596, 0.586405, -0.218315, 1.980305, -0.504524, 0.226332, 0.084873
4399.9998569488525, 0.802355, -0.759472, 2.07473, -0.500644, 0.095053, 0.286352
4409.999847412109, 0.806805, -1.114262, 2.062386, -0.057128, -0.053575, 0.193789
4419.999837875366, 0.539766, -1.206835, 1.997545, 0.05197, -0.189256, 0.076357
4429.999828338623, -0.010637, -0.841818, 1.874283, 0.113067, -0.395903, 0.036698
4439.99981880188, -0.47548, 0.107024, 1.651643, 0.160685, -0.465557, 0.182772
4449.999809265137, -0.179505, -0.229228, 1.556117, 0.161037, -0.4126, 0.245139
4470.0000286102295, -0.525574, -0.793991, 1.555748, -0.065171, -0.119361, -0.38609
4480.000019073486, -0.778309, -0.664337, 1.399057, 0.111154, -0.710213, -0.189965
4490.000009536743, -0.670232, -0.589094, 1.49869, -0.042351, -0.441341, 0.242185
4500.0, -0.36242, -0.817672, 1.547465, 0.124876, -0.152214, 0.168915
4509.999990463257, -0.051136, -0.608586, 1.466257, -0.05303, -0.398913, 0.042261
4519.999980926514, -0.153126, 0.438082, 1.194467, 0.099816, -0.763745, 0.173447
4529.9999713897705, 0.006798, 0.923211, 1.265853, 0.013689, -0.70604, 0.219282
4539.999961853027, 0.065044, 1.204473, 1.389497, 0.063814, -0.215946, 0.242834
4549.999952316284, 0.078013, 0.267193, 0.948039, 0.383806, 0.058075, -0.114493
4559.999942779541, -0.198486, -0.613394, 0.761453, 0.581363, 0.177637, -0.049663
4569.999933242798, 0.009608, -0.775427, 0.329349, 0.128335, 0.488447, -0.529887
4579.999923706055, 0.413053, -1.012701, 0.012941, -0.101342, 1.003269, -0.003999
4589.9999141693115, 0.823962, -1.084984, -0.212932, -0.066489, 0.938712, 0.048542
4599.999904632568, 0.940956, -0.928617, -0.486156, 0.001472, 0.823992, 0.007573
4609.999895095825, 0.931517, -0.250448, -1.133043, -0.139798, 0.784832, 0.173456
4619.999885559082, 0.727585, 0.304084, -1.629797, -0.27408, 0.531065, 0.304896
4629.999876022339, 0.406287, 0.497327, -1.604584, -0.311554, 0.45041, 0.306271
4639.999866485596, 0.217424, 0.477128, -1.252524, -0.268416, 0.297681, 0.179972
4649.9998569488525, -0.277181, 0.21443, -0.666532, -0.11907, 0.489611, 0.104836
4659.999847412109, -1.157626, -0.569771, 0.768946, -0.07008, 0.271396, 0.04212
4679.999828338623, -1.351046, -0.650258, 1.081484, -0.158915, -0.275102, -0.30665
4689.99981880188, -0.611701, -1.119051, 1.035069, -0.18801, -0.862786, -0.035698
4699.999809265137, 0.299732, -1.249837, 0.626082, 0.088963, -0.650404, -0.065957
4709.999799728394, 0.796208, -0.605568, 0.253211, 0.241177, -0.372648, -0.131524
4720.0000286102295, 0.94277, -0.221761, 0.013369, 0.312375, -0.006359, 0.105884
4730.000019073486, 0.68643, -0.273828, -0.299746, 0.210252, 0.126659, 0.321266
4740.000009536743, 0.2235, -0.513618, -0.497387, 0.21099, 0.110384, -0.084015
4750.0, -0.135657, -0.354585, -0.694131, 0.154964, 0.220477, -0.140926
4759.999990463257, -0.209464, -0.296765, -0.71089, 0.100312, 0.171563, 0.047735
4769.999980926514, -0.213285, -0.234884, -0.281504, 0.091811, 0.10138, 0.006356
4779.9999713897705, -0.411474, -0.058688, 0.091634, 0.118426, -0.046644, 0.024287
4789.999961853027, -0.550312, 0.088871, 0.237993, 0.118243, -0.226105, -0.010413
4799.999952316284, -0.597682, 0.099628, 0.831957, -0.005166, -0.100677, -0.0611
4809.999942779541, -0.418656, 0.052769, 1.235157, 0.139922, -0.363175, -0.049699
4819.999933242798, 0.017862, -0.277777, 0.420409, 0.203493, -0.977737, -0.109366
4829.999923706055, 0.635937, -0.251054, -0.104627, 0.084685, -1.000235, -0.198124
4839.9999141693115, 1.001243, -0.165541, -0.304388, 0.07655, -0.555615, -0.050389
4849.999904632568, 0.776786, -0.384767, -0.570068, 0.160245, -0.321148, 0.03207
4859.999895095825, 0.503947, -0.519146, -0.521454, 0.017106, -0.269879, -0.099519
4879.999876022339, 0.567301, -0.495605, -0.189795, 0.001448, -0.342516, -0.087459
4889.999866485596, 0.566941, -0.150893, -0.006745, 0.006711, -0.157758, -0.048343
4899.9998569488525, 0.357158, 0.161806, 0.156652, 0.039353, 0.063059, -0.049229
4909.999847412109, 0.539851, -0.169565, 0.426117, 0.001017, 0.166304, 0.023228
4919.999837875366, 0.802773, -0.023667, 0.616324, 0.076225, 0.209909, -0.043746
4929.999828338623, 0.878491, 0.267228, 0.637035, 0.136234, 0.082852, 0.035674
4939.99981880188, 0.989335, 0.589003, 0.687168, 0.324347, -0.306869, 0.080528
4949.999809265137, 1.003522, 1.397792, 0.695796, 0.318871, -0.310005, 0.09411
4959.999799728394, 1.080289, 1.580526, 1.806213, 0.287129, -0.335919, 0.157636
4970.0000286102295, 1.154508, 2.294547, 1.657868, 0.259548, -0.056562, 0.01325
4980.000019073486, 0.921173, 2.190814, 1.18284, 0.050768, 0.210622, 0.097591
4990.000009536743, 0.909837, 0.84083, -0.483362, 0.295423, -0.508019, -0.011783
5000.0, 1.802988, -2.004423, -1.781349, 0.161528, -0.164331, -0.244412
5009.999990463257, 1.933231, -0.765371, -1.824914, 0.10313, -0.551966, -0.355426
5019.999980926514, 1.649973, 0.495156, -2.069817, 0.774715, -1.281168, -0.408949
5029.9999713897705, 1.134458, 0.364998, -2.108176, 0.148269, 0.925649, 0.390365
5039.999961853027, 0.436299, 0.048714, -1.034863, -0.835203, 1.429577, -0.044057
5049.999952316284, 0.287836, 0.198907, -0.4766, -0.661556, 0.551544, 0.038886
5059.999942779541, 0.370033, 0.322245, -0.525327, -0.576404, 1.147429, 0.10699
5069.999933242798, 0.473184, 0.330285, -0.817096, 0.045614, -0.012069, 0.008682
5089.9999141693115, 0.619521, 0.581615, -1.184709, 0.099453, 0.037076, 0.030845
5099.999904632568, 0.719838, 1.04467, -1.469483, 0.112792, 0.042815, 0.041201
5109.999895095825, 0.770448, 1.42761, -1.675128, 0.140678, 0.149375, 0.073933
5119.999885559082, 0.765339, 1.649255, -2.149902, 0.133933, 0.271388, 0.104226
5129.999876022339, 0.485065, 1.63387, -2.138971, 0.12897, 0.250489, 0.115853
5139.999866485596, 0.176661, 1.434144, -1.700981, 0.128671, 0.388484, 0.085311
5149.9998569488525, -0.19671, 0.920761, -0.92504, -0.115161, 0.36951, 0.03292
5159.999847412109, -0.245727, 0.788431, -0.667185, -0.417405, 0.461798, -0.045851
5169.999837875366, -0.362856, 0.302213, -0.871618, -0.428876, 0.262733, -0.020734
5179.999828338623, -0.387422, 0.354649, -0.947672, -0.188236, 0.169683, -0.085271
5189.99981880188, -0.364071, 0.566276, -0.94968, 0.138778, 0.133333, -0.00661
5199.999809265137, -0.285403, 0.558622, -0.720295, 0.053564, 0.127045, 2.0E-5
5209.999799728394, -0.318015, 0.67807, -0.683536, 0.089714, 0.063578, 0.018947
5220.0000286102295, -0.352841, 0.771022, -0.586265, 0.052911, 0.051783, 0.078807
5230.000019073486, -0.359001, 0.776962, -0.415977, 0.026372, -0.003978, 0.062076
5240.000009536743, -0.301084, 0.550224, -0.178288, -0.056169, -0.055066, 0.044465
5250.0, 0.256788, -0.322943, -0.79325, -0.159643, -0.110557, 0.040645
5259.999990463257, -0.526492, -1.54842, -0.626885, -0.193365, -0.111765, 0.03046
5269.999980926514, -1.003517, -1.413178, -0.288968, 0.449504, 0.288873, 0.103272
5289.999961853027, -0.361936, -1.206102, -0.919731, -0.176326, -0.01472, -0.115245
5299.999952316284, -0.807526, -0.508317, -1.710609, -0.216912, -0.092515, -0.18071
5309.999942779541, -0.508509, 0.436687, -1.22921, 0.463765, 0.223448, 0.110898
5319.999933242798, -0.49252, 0.720268, -1.555097, 0.244283, 0.104158, -0.110654
5329.999923706055, -0.535102, 1.091514, -1.614716, -0.206611, 0.11518, -0.103562
5339.9999141693115, -0.578998, 0.808539, -1.38, 0.059416, 0.068343, 0.095814
5349.999904632568, -0.56081, 0.656296, -1.059516, 0.046637, -0.006263, 0.041521
5359.999895095825, -0.59999, 0.399976, -0.902448, -0.036539, 0.034729, 0.065653
5369.999885559082, -0.720761, 0.474139, -0.983937, -0.07276, 0.018556, 0.016794
5379.999876022339, -0.818298, 0.361208, -1.006741, -0.090434, 0.075947, 0.065504
5389.999866485596, -0.852567, 0.51929, -1.006225, 0.013858, 0.093613, 0.060813
5399.9998569488525, -0.643864, 0.679377, -0.631846, 0.002674, 0.045877, 0.031748
5409.999847412109, -0.422739, 0.543923, -0.542969, -0.032106, -0.008673, -0.015234
5419.999837875366, -0.219884, 0.219967, -0.258619, -0.06617, -0.063799, 0.019818
5429.999828338623, -0.174793, -9.22E-4, -0.1365, -0.001091, -0.161026, 0.018424
5439.99981880188, -0.198643, 0.121425, -0.143816, -0.089844, -0.110248, 0.059426
5449.999809265137, -0.182996, 0.074102, -0.093733, -0.070132, -0.066578, 0.05064
5459.999799728394, -0.141284, 0.08231, -0.011097, -0.013691, -0.084929, 0.027193
5470.0000286102295, -0.091907, 0.07836, 0.052232, -0.092656, -0.052956, 0.025283
5480.000019073486, -0.07787, 0.071697, 0.118775, -0.079031, -0.023337, 0.013428
5500.0, -0.08862, 0.023376, 0.267837, -0.06066, -0.040629, 0.011452
5509.999990463257, -0.084632, 0.039572, 0.548479, -0.091638, -0.07403, 0.017467
5519.999980926514, 0.013564, 0.289139, 1.084096, -0.195984, -0.127654, 0.052521
5529.9999713897705, 0.183673, 0.696916, 1.680631, -0.326293, -0.191704, 0.072744
5539.999961853027, 0.3143, 0.874847, 1.353276, -0.478951, -0.186977, 0.12118
5549.999952316284, 0.359259, 0.184323, 1.002552, -0.373124, 0.230297, 0.01602
5559.999942779541, 0.492238, -0.575318, 0.844365, 0.195771, 0.340045, -0.078278
5569.999933242798, 0.599646, -0.913837, 0.444447, 0.134362, 0.223164, -0.021463
5579.999923706055, 0.184295, -0.788448, 0.529545, 0.127472, 0.1074, 0.095272
5589.9999141693115, 0.007194, -0.204313, 0.49873, 0.331159, 0.054699, 0.103945
5599.999904632568, 0.008299, 0.073909, 0.356687, 0.010051, -0.194237, -0.019918
5609.999895095825, -0.098341, 0.112859, 0.208542, -0.014034, 0.006064, 0.092312
5619.999885559082, -0.064089, 0.226247, 0.132309, 0.096646, 0.060776, 0.05337
5629.999876022339, 0.019971, 0.288658, 0.123883, 0.115193, -0.188524, 0.06949
5639.999866485596, 0.122087, 0.309175, 0.110294, 0.101035, -0.265783, 0.122947
5649.9998569488525, 0.213551, 0.242323, 0.037929, 0.01534, -0.137754, 0.085984
5659.999847412109, 0.322041, 0.108772, -0.031838, -0.019567, -0.004449, 0.031226
5669.999837875366, 0.468625, -0.044479, -0.084778, -0.00956, 0.002351, 0.005048
5679.999828338623, 0.649672, -0.074072, 0.033622, 0.029332, -0.162764, 0.036956
5699.999809265137, 0.607301, 0.071, 0.541992, 0.020622, -0.283856, 0.06051
5709.999799728394, 0.783312, 0.023813, 0.544103, -0.041395, -0.311328, 0.108852
5720.0000286102295, 0.838264, -0.195428, 0.47869, -0.301868, 0.107325, -0.012537
5730.000019073486, 0.846722, -0.442132, 0.410616, -0.220944, 0.199481, -0.008697
5740.000009536743, 0.787712, -0.62414, 0.394439, -0.123401, 0.246963, -0.013657
5750.0, 0.736436, -0.681327, 0.393438, 0.018077, 0.098421, 0.022622
5759.999990463257, 0.69667, -0.619397, 0.353798, 0.069515, 0.054556, 0.069749
5769.999980926514, 0.618972, -0.556278, 0.292741, 0.054209, 0.077744, 0.106985
5779.9999713897705, 0.509962, -0.525346, 0.213379, 0.023825, 0.128279, 0.107858
5789.999961853027, 0.389489, -0.484555, 0.130005, 0.020446, 0.162248, 0.106841
5799.999952316284, 0.251285, -0.438902, 0.04384, 0.057808, 0.175807, 0.088901
5809.999942779541, 0.116768, -0.38092, -0.035121, 0.068859, 0.166778, 0.071311
5819.999933242798, -0.005284, -0.30083, -0.087293, 0.069936, 0.167245, 0.069713
5829.999923706055, -0.098486, -0.194815, -0.113731, 0.075515, 0.144964, 0.050135
5839.9999141693115, -0.129691, -0.097248, -0.120734, 0.085712, 0.124844, 0.029933
5849.999904632568, -0.127877, -0.016936, -0.111025, 0.105021, 0.113465, 0.014725
5859.999895095825, -0.095472, 0.032656, -0.10281, 0.132854, 0.0998, -0.014201
5869.999885559082, -0.052613, 0.043957, -0.09257, 0.146089, 0.08514, -0.038877
5879.999876022339, -0.02988, 0.045276, -0.086132, 0.152868, 0.078962, -0.055885
5889.999866485596, -0.023562, 0.045303, -0.084815, 0.135185, 0.065417, -0.051932
5909.999847412109, -0.023736, 0.06506, -0.081472, 0.115089, 0.05408, -0.032011
5919.999837875366, -0.022743, 0.095924, -0.07462, 0.111077, 0.044491, -0.015679
5929.999828338623, -0.0218, 0.134095, -0.054401, 0.110725, 0.035433, -0.001375
5939.99981880188, -0.011886, 0.158682, -0.030143, 0.104061, 0.027076, 0.006347
5949.999809265137, 0.015824, 0.170996, -0.004196, 0.094806, 0.01803, 0.007483
5959.999799728394, 0.043689, 0.16718, 0.028159, 0.081391, 0.005404, 0.003139
5970.0000286102295, 0.056491, 0.154502, 0.073936, 0.06757, -0.006137, 0.004616
5980.000019073486, 0.115828, 0.16087, 0.094309, 0.054942, -0.0176, 0.007879
5990.000009536743, 0.153777, 0.157248, 0.110861, 0.038965, -0.023927, 0.016721
6000.0, 0.193327, 0.115346, 0.121951, 0.007448, -0.001741, 0.014481
6009.999990463257, 0.221512, 0.072192, 0.126766, -0.005937, -0.008364, 0.016726
6019.999980926514, 0.227143, 0.00793, 0.125479, -0.023358, -0.00847, 0.02636
6029.9999713897705, 0.256673, -0.046223, 0.115781, -0.038512, -0.011266, 0.036617
6039.999961853027, 0.255779, -0.089372, 0.099327, -0.03699, -0.027225, 0.04477
6049.999952316284, 0.249886, -0.13755, 0.089016, -0.066807, 0.013535, 0.052874
6059.999942779541, 0.245113, -0.169663, 0.080904, -0.064387, 0.020653, 0.055531
6069.999933242798, 0.244101, -0.198075, 0.076464, -0.061071, 0.020825, 0.059551
6079.999923706055, 0.239226, -0.217883, 0.075501, -0.055609, 0.01526, 0.064002
6089.9999141693115, 0.2305, -0.231498, 0.070699, -0.051356, 0.015692, 0.062986
6099.999904632568, 0.228099, -0.245128, 0.072121, -0.049702, 0.00775, 0.060462
6119.999885559082, 0.234515, -0.256222, 0.072401, -0.045569, 0.004564, 0.058464
6129.999876022339, 0.244793, -0.274745, 0.076541, -0.047293, 3.9E-4, 0.054703
6139.999866485596, 0.27409, -0.300608, 0.084759, -0.047439, -0.009262, 0.051542
6149.9998569488525, 0.312345, -0.338818, 0.096995, -0.042226, -0.019577, 0.04893
6159.999847412109, 0.358216, -0.380714, 0.111855, -0.039868, -0.036194, 0.04317
6169.999837875366, 0.405386, -0.426334, 0.12925, -0.039785, -0.048479, 0.03742
6179.999828338623, 0.448674, -0.462051, 0.142742, -0.043467, -0.052805, 0.036117
6189.99981880188, 0.481779, -0.48918, 0.157169, -0.04422, -0.047146, 0.031166
6199.999809265137, 0.49586, -0.508939, 0.163838, -0.044656, -0.031214, 0.031778
6209.999799728394, 0.502304, -0.522537, 0.16784, -0.040002, -0.014534, 0.033231
6220.0000286102295, 0.494685, -0.516502, 0.179893, -0.014541, 0.016124, 0.046385
6230.000019073486, 0.519948, -0.251971, 0.065411, -0.013155, 0.006692, 0.054581
6240.000009536743, 0.416037, 0.080322, 0.180947, -0.188937, -0.047658, -0.178685
6250.0, -0.983095, -1.188515, 0.502271, -0.19098, -0.050715, -0.18872
6259.999990463257, 0.003211, -1.464369, 0.337199, 0.170795, 0.082324, 0.132213
6269.999980926514, 0.573416, -0.430207, 0.121929, -0.105917, -0.322516, -0.143882
6279.9999713897705, 0.703724, -0.178027, 0.080307, -0.022099, 0.350464, 0.200293
6289.999961853027, 0.59391, -0.324768, 0.098369, -0.018854, 0.105782, 0.079979
6299.999952316284, 0.493076, -0.486319, 0.119263, 0.007692, 0.09997, 0.088089
6319.999933242798, 0.44853, -0.450641, 0.109433, 0.025089, 0.026962, 0.050236
6329.999923706055, 0.438572, -0.327026, 0.108429, 0.048076, 0.049114, 0.011727
6339.9999141693115, 0.413966, -0.258044, 0.122853, 0.029641, 0.044705, -0.005826
6349.999904632568, 0.347658, -0.324279, 0.157354, -0.029798, 0.035465, -0.019379
6359.999895095825, 0.348033, -0.362806, 0.180086, -0.023671, 0.012072, -0.02178
6369.999885559082, 0.334134, -0.3582, 0.210469, -0.013316, 0.006032, -0.002818
6379.999876022339, 0.336213, -0.306387, 0.226795, 0.014454, 0.023391, 0.016261
6389.999866485596, 0.320584, -0.246373, 0.284426, 0.023633, 0.026149, -0.003147
6399.9998569488525, 0.296591, -0.227931, 0.426037, 0.011972, 0.024504, -0.009908
6409.999847412109, 0.285082, -0.197983, 0.532066, 0.004397, 0.026994, 4.85E-4
6419.999837875366, 0.2773, -0.166443, 0.598876, -0.036256, 0.028306, 0.01814
6429.999828338623, 0.176988, 0.038997, 0.655283, -0.013921, 0.027925, 0.021407
6439.99981880188, -0.016461, 0.083316, 0.833257, -2.69E-4, -0.025202, 0.018076
6449.999809265137, -0.14874, 0.037188, 0.783068, 0.023531, -0.097811, 0.012559
6459.999799728394, 0.035232, 0.019057, 0.280731, 0.178026, 0.118115, 0.004717
6470.0000286102295, -0.103772, -0.246925, 0.339631, 0.433897, 0.187608, 0.026174
6480.000019073486, -0.043983, -0.326145, 0.098994, 0.006205, 0.091766, -0.097569
6490.000009536743, -0.053052, -0.170991, 0.025109, 0.116123, 0.044794, 0.060355
6500.0, 0.006971, -0.110811, -0.029004, 0.047381, 9.44E-4, 0.009987
6509.999990463257, 0.099683, -0.176398, -0.103825, 0.123247, 0.071434, 0.001185
6529.9999713897705, 0.174053, -0.300735, -0.117823, 0.130917, 0.013319, 0.034204
6539.999961853027, 0.21788, -0.398165, -0.117998, 0.105453, 0.061897, 0.034861
6549.999952316284, 0.186105, -0.372629, -0.089453, 0.064069, 0.074556, 0.044881
6559.999942779541, 0.091556, -0.249774, -0.061005, 0.053918, 0.070082, 0.044676
6569.999933242798, -0.167198, -0.132565, -0.066719, 0.045277, 0.08324, 0.024364
6579.999923706055, -0.12156, -0.145007, -0.025377, 0.060768, 0.085363, -0.002693
6589.9999141693115, 0.049897, 0.033995, -0.012432, 0.08558, 0.08117, -0.028948
6599.999904632568, 0.190843, -0.04564, -4.68E-4, 0.054382, 0.008242, 0.057027
6609.999895095825, 0.103907, -0.069705, 0.004815, 0.066941, 0.012688, 0.068722
6619.999885559082, 0.056101, -0.101511, -0.070152, 0.058991, 0.072882, 0.054286
6629.999876022339, 0.050783, -0.21978, -0.127102, 0.080779, 0.078535, 0.034922
6639.999866485596, -0.007301, -0.219094, -0.103423, 0.104818, 0.080593, 0.060281
6649.9998569488525, -0.0462, -0.101034, -0.05324, 0.038194, 0.030143, 0.044227
6659.999847412109, -0.064427, -0.035912, -0.016582, 0.01179, 0.053877, 0.011391
6669.999837875366, -0.064925, 0.020876, -0.005284, 0.009576, 0.062011, 0.00358
6679.999828338623, -0.039747, 0.030888, -0.00141, 0.023221, 0.032201, 0.019002
6689.99981880188, -0.024313, -0.003414, -0.028817, 0.0449, 0.059382, 0.031892
6699.999809265137, -0.007455, -0.057382, -0.069362, 0.061417, 0.051979, 0.045553
6709.999799728394, 0.028191, -0.089246, -0.078121, 0.101915, 0.002333, 0.058455
6730.000019073486, 0.019405, -0.088498, -0.026749, 0.102312, -0.004979, 0.061857
6740.000009536743, 0.049138, -0.034473, -0.105725, 0.065991, -0.009599, 0.066225
6750.0, 0.029237, -0.076186, -0.159272, -0.019181, 0.068134, 0.045921
6759.999990463257, -0.153794, -0.088543, -0.144536, 0.066259, 0.063935, 0.023271
6769.999980926514, -0.320696, 0.082745, -0.045588, 0.100838, 0.031126, 0.018851
6779.9999713897705, -0.391728, 0.13315, 0.084992, 0.072483, -0.046391, -0.013275
6789.999961853027, -0.340581, 0.355376, 0.165378, -0.018466, 0.063009, 0.004355
6799.999952316284, -0.147701, 0.385762, 0.073213, -0.056597, 0.118492, 0.014317
6809.999942779541, -0.056759, 0.237255, 0.004672, 0.020757, 0.045199, 0.063052
6819.999933242798, -0.014172, -0.003584, -0.001686, 0.091352, 0.027339, 0.056998
6829.999923706055, -0.014037, -0.152367, 0.043753, 0.10579, 0.046306, 0.060762
6839.9999141693115, 0.088199, -0.139614, 0.07077, 0.068734, 0.073744, 0.056458
6849.999904632568, 0.238683, 0.103591, -0.064847, 0.040311, 0.060239, 0.050046
6859.999895095825, 0.250214, 0.21908, -0.113235, 0.049741, 0.127983, 0.101491
6869.999885559082, -0.077598, 0.153847, -0.091111, 0.112038, 0.10637, 0.085667
6879.999876022339, -0.549315, -0.190024, 0.020717, 0.161889, -0.023961, 0.048929
6889.999866485596, -0.855086, -0.310036, 0.101728, 0.117996, -0.092569, -0.043198
6899.9998569488525, -0.811906, -0.039932, 0.217984, 0.036916, -0.142496, -0.087122
6909.999847412109, -0.558626, 0.709725, 0.077755, -0.078599, -0.10321, -0.082695
6919.999837875366, -0.184577, 1.084762, -0.132899, -0.262082, -0.064867, 0.015916
6939.99981880188, 0.102254, 1.071842, -0.155522, -0.37081, 0.102099, 0.056845
6949.999809265137, 0.252573, 0.929444, -0.173025, -0.144953, 0.267858, 0.079826
6959.999799728394, 0.284144, 0.662971, -0.080993, 0.126461, 0.177053, 0.104132
6970.0000286102295, 0.192135, 0.38627, 0.108771, 0.19602, -0.017055, 0.071188
6980.000019073486, 0.125209, 0.115537, 0.195774, 0.173281, -0.123647, 0.046986
6990.000009536743, 0.110058, 0.120062, 0.234725, 0.045794, 0.027908, 0.02864
7000.0, 0.100317, 0.07922, 0.231595, -0.021518, 0.03621, 0.0318
7009.999990463257, 0.07364, -0.052728, 0.168435, -0.045569, 0.012339, 0.038823
7019.999980926514, 0.048592, -0.076386, 0.169699, -0.036027, 0.023226, 0.07307
7029.9999713897705, -0.00678, -0.088531, 0.25005, -0.027348, 0.120001, 0.078701
7039.999961853027, -0.154908, -0.196678, 0.210491, 0.023291, 0.140123, 0.079784
7049.999952316284, -0.129927, -0.186552, 0.054921, 0.108975, 0.015378, 0.088745
7059.999942779541, -0.176532, 0.201332, -0.073719, 0.086663, 0.012871, 0.091606
7069.999933242798, -0.248226, 0.165165, -0.088861, 0.032299, 0.086223, 0.078015
7079.999923706055, -0.189207, 0.208522, -0.055626, 0.084491, -0.098273, 0.012063
7089.9999141693115, -0.133995, 0.257791, 0.006888, 0.029037, -0.009813, 0.035451
7099.999904632568, -0.137479, 0.219699, -0.024407, 0.013699, 0.031461, 0.029726
7109.999895095825, -0.148039, 0.263342, -0.074354, 0.002089, -0.094185, 0.016399
7119.999885559082, -0.1508, 0.286971, -0.091963, 0.050342, -0.140847, 0.041303
7139.999866485596, -0.113034, 0.30083, -0.095331, 0.065771, -0.095338, 0.049358
7149.9998569488525, -0.021435, 0.228439, -0.097693, 0.081458, -0.042951, 0.048077
7159.999847412109, 0.083141, 0.1143, -0.126144, 0.071939, 0.015968, 0.049325
7169.999837875366, 0.225735, -0.006235, -0.102428, 0.064822, 0.103647, 0.046627
7179.999828338623, 0.362248, -0.148133, -0.042871, 0.072343, 0.094057, 0.049639
7189.99981880188, 0.309775, -0.201097, 0.040664, 0.087708, -0.050605, 0.077407
7199.999809265137, 0.15057, -0.180761, 0.154535, -0.02854, 9.32E-4, 0.06684
7209.999799728394, -0.047126, -0.10089, 0.220241, -0.052865, -0.007208, 0.011954
7220.0000286102295, -0.154042, 0.141304, 0.312725, -0.029819, -0.011308, -8.58E-4
7230.000019073486, -0.175093, 0.251414, 0.438114, -0.045527, -0.040367, -0.00129
7240.000009536743, -0.153677, 0.265884, 0.497048, -0.065827, 0.049562, -0.007736
7250.0, -0.092116, 0.172892, 0.569415, -0.069864, 0.107686, 0.017107
7259.999990463257, 0.027906, 0.152491, 0.435355, -0.095204, 0.113455, 0.060582
7269.999980926514, 0.123315, 0.185992, 0.198235, -0.075, 0.046997, 0.10445
7279.9999713897705, 0.159289, 0.233547, 0.011531, 0.05821, 0.244443, 0.104848
7289.999961853027, -0.002319, 0.209997, -0.097106, 0.148327, -8.75E-4, 0.126416
7299.999952316284, -0.260921, 0.344845, 0.15076, 0.123122, -0.087498, 0.101976
7309.999942779541, -0.41003, 0.641325, 0.228228, -0.082494, -0.002231, 0.051067
7319.999933242798, -0.451345, 0.595609, 0.194062, -0.141867, 0.070991, -0.026928
7329.999923706055, -0.315696, 0.408047, 0.242113, -0.024034, 0.09279, -0.04313
7349.999904632568, -0.109645, 0.28826, 0.514476, 0.007031, 0.079714, 0.050532
7359.999895095825, 0.153516, 0.346459, 0.254832, -0.135292, 0.282479, 0.097629
7369.999885559082, 0.126267, -0.03102, -0.021274, -0.032351, 0.17458, 0.132093
7379.999876022339, 0.119811, -0.018503, -0.043655, 0.244971, -0.096823, 0.175548
7389.999866485596, 0.137266, 0.155443, 0.018663, 0.118776, -0.090638, 0.13385
7399.9998569488525, 0.041879, 0.072906, -0.086796, -0.045031, -0.064461, 0.08646
7409.999847412109, -0.081398, 0.025791, -0.014193, 0.045835, -0.001668, 0.04433
7419.999837875366, -0.101569, -0.245954, 0.079634, 0.062817, 0.014584, -0.008858
7429.999828338623, -0.033864, -0.181738, 0.138397, 0.034455, 0.076769, -0.046614
7439.99981880188, -0.024634, -0.079369, 0.177275, -0.020656, 0.048174, 0.026035
7449.999809265137, 0.015666, -0.066711, 0.171511, 0.041421, 2.34E-4, 0.055756
7459.999799728394, 0.049157, -0.005482, 0.120676, 0.04677, 0.001742, 0.086736
7470.0000286102295, 0.021546, -0.031245, 0.07656, 0.024962, -0.045164, 0.073098
7480.000019073486, 0.040236, -0.149434, 0.027314, -0.016528, -0.049856, 0.073126
7490.000009536743, 0.084234, -0.275914, -0.047182, 0.001879, -0.032295, 0.067437
7500.0, 0.136375, -0.313979, -0.042108, 0.043125, -0.038224, 0.062673
7509.999990463257, 0.109926, -0.466038, -0.066905, 0.069713, -0.039598, 0.029476
7519.999980926514, 0.17729, -0.254026, -0.22895, 0.031585, 0.005793, 0.030541
7529.9999713897705, 0.244986, -0.240977, -0.553203, 0.002505, 0.027158, 0.034607
7549.999952316284, 0.207015, -0.345533, -0.354528, 0.040164, -0.146282, 0.054436
7559.999942779541, 0.119181, -0.247354, -0.18207, -0.012378, -0.205551, 0.049984
7569.999933242798, 0.133989, 0.069447, -0.197016, -0.126083, -0.068824, -0.023149
7579.999923706055, 0.181937, 0.073555, -0.209884, -0.181032, 0.167856, 0.044669
7589.9999141693115, 0.222602, -0.086184, -0.156316, -0.073619, 0.086393, 0.017492
7599.999904632568, 0.307868, -0.271477, 0.025879, 0.055392, 0.097094, 0.029426
7609.999895095825, 0.347894, -0.357217, 0.102717, 0.053259, -0.02804, -0.025143
7619.999885559082, 0.350092, -0.182716, 0.088765, 0.019132, 0.181753, 0.105297
7629.999876022339, 0.314379, -0.145759, 0.080267, 0.018074, 0.165438, 0.102263
7639.999866485596, 0.230398, -0.187726, 0.302978, 0.021639, 0.109903, 0.065666
7649.9998569488525, 0.161267, -0.086682, 0.296595, 0.01754, 0.295023, 0.121658
7659.999847412109, 0.023695, -0.098689, 0.30217, 0.080627, 0.228049, 0.078428
7669.999837875366, -0.087209, -0.128924, 0.288815, 0.110701, 0.172362, 0.091075
7679.999828338623, -0.192108, -0.13265, 0.216229, 0.036537, 0.040406, 0.100934
7689.99981880188, -0.249992, -0.160036, 0.196232, -1.21E-4, -0.066949, 0.120709
7699.999809265137, -0.333354, -0.148919, 0.284372, 0.019499, -0.068051, 0.10348
7709.999799728394, -0.261139, -0.192967, 0.134078, 0.014726, -0.031745, 0.092332
7720.0000286102295, -0.160681, -0.141954, 0.02306, 0.012195, -0.021282, 0.05616
7730.000019073486, -0.094989, 4.62E-4, 0.046133, -0.043299, -0.119619, 0.082664
7740.000009536743, 0.00894, 0.107111, 0.08508, -0.085495, -0.066514, 0.067829
7759.999990463257, 0.193888, -0.085056, 0.127787, -0.086514, -0.034621, 0.023077
7769.999980926514, 0.35064, -0.09308, 0.164526, -0.059996, -0.010987, 0.075581
7779.9999713897705, 0.413176, -0.023479, 0.167933, -0.055468, -0.045584, 0.068974
7789.999961853027, 0.307894, 0.160438, 0.133874, -0.039906, -0.047411, 0.064941
7799.999952316284, 0.163705, 0.330852, 0.206182, -0.043709, -0.141067, 0.043209
7809.999942779541, 0.191386, 0.237358, 0.459583, -0.172601, -0.121574, 0.013903
7819.999933242798, 0.413155, -0.194601, 0.952072, -0.228708, -0.038251, 0.069349
7829.999923706055, 0.495952, -0.664454, 1.14762, -0.154816, 0.16768, 0.089731
7839.9999141693115, 0.433151, -0.750956, 0.80354, -0.092196, 0.141401, 0.108037
7849.999904632568, 0.341163, -0.540935, 0.471204, -0.025346, 0.182797, 0.105727
7859.999895095825, 0.321784, -0.62212, 0.552014, 0.118814, 0.101417, 0.085223
7869.999885559082, 0.50131, -1.007619, 0.931502, 0.211193, 0.103852, 0.028666
7879.999876022339, 0.370011, -1.551564, 1.108039, 0.164811, 0.183002, 0.038637
7889.999866485596, 0.336481, -1.489078, 1.007157, 0.16546, 0.182635, 0.058683
7899.9998569488525, 0.386597, -1.424425, 1.147832, 0.003907, 0.128247, 0.094674
7909.999847412109, 0.347743, -1.447583, 1.226155, 0.014229, -0.041144, 0.039002
7919.999837875366, 0.345673, -1.362025, 1.197699, 0.046651, -0.01994, 0.060677
7929.999828338623, 0.290328, -1.271834, 1.022447, 0.120288, -0.048292, -0.009091
7939.99981880188, 0.251092, -1.145762, 0.856634, 0.222144, -0.050001, 0.019726
7959.999799728394, 0.375827, -1.217543, 1.097578, 0.148084, -0.102156, -0.003855
7970.0000286102295, 0.51822, -1.558091, 1.399732, 0.004575, -0.07145, -0.0476
7980.000019073486, 0.734054, -1.782888, 1.66665, -0.033637, -0.022394, -0.036941
7990.000009536743, 0.760856, -2.060551, 1.90843, -0.083838, -0.024708, -0.076417
8000.0, 0.648874, -1.981338, 1.820851, -0.040893, -0.037618, -0.032145
8009.999990463257, 0.513017, -1.650334, 1.628107, -0.003704, 0.065016, -0.024678
8019.999980926514, 0.407044, -1.39325, 1.5695, 0.079167, 0.107886, -0.01743
8029.9999713897705, 0.483603, -1.421091, 1.990523, 0.095953, 0.101786, -1.72E-4
8039.999961853027, 0.451412, -1.820344, 2.675026, 0.130543, 0.118835, -0.035945
8049.999952316284, 0.193613, -1.498501, 2.892766, -0.037105, 0.067041, -0.071518
8059.999942779541, 0.010697, -0.980525, 2.784491, -0.106199, 0.061762, 0.041745
8069.999933242798, -0.216781, -0.468662, 2.344534, -0.083089, 0.037073, 0.081776
8079.999923706055, -0.353104, -0.126477, 1.853567, -0.031686, -0.089273, 0.073135
8089.9999141693115, -0.371114, 0.107325, 1.248398, 0.15064, -0.070275, 0.011266
8099.999904632568, -0.297361, 0.384148, 0.593543, 0.21631, -0.00732, 0.042728
8119.999885559082, -0.135595, 0.333333, 0.28399, 0.195511, 0.040671, 0.078052
8109.999895095825, -0.215566, 0.511267, 0.244265, 0.198967, 0.041129, 0.079384
8139.999866485596, -0.004326, 0.215943, 0.36636, -0.003535, 0.013222, 0.071443
8129.999876022339, -0.045122, 0.250739, 0.317352, 6.61E-4, 0.013479, 0.07144
8149.9998569488525, -0.033517, 0.071092, 0.218756, -0.072327, -0.038063, 0.100948
8169.999837875366, -0.09376, 0.155589, 0.128156, -0.033824, -0.082708, 0.095498
8179.999828338623, -0.211403, 0.183945, 0.200792, 0.104767, 0.033425, 0.075179
8189.99981880188, -0.227801, 0.172062, 0.132074, 0.079349, 0.123304, 0.063513
8199.999809265137, -0.169984, 0.205704, 0.143379, 0.073136, 0.113028, 0.03836
8209.999799728394, -0.238841, 0.148912, 0.229196, 0.112081, 0.023743, 0.073661
8220.00002861023, -0.318373, 0.146977, 0.255062, 0.023146, -0.017045, 0.070061
8230.000019073486, -0.328146, 0.237957, 0.16508, 0.041656, 0.050903, 0.055086
8240.000009536743, -0.353567, 0.248148, 0.111804, 0.055494, 0.048938, 0.057452
8250.0, -0.271171, 0.204826, 0.029099, 0.073772, -0.007445, 0.05048
8259.999990463257, -0.153536, 0.182342, -0.006843, 0.073428, -0.032003, 0.033263
8269.999980926514, -0.058649, 0.160961, -0.043132, 0.06654, -0.05846, 0.046776
8279.99997138977, -0.171689, 0.219049, -0.119332, 0.025675, -0.027481, 0.063451
8289.999961853027, -0.797068, 0.76124, -0.334972, 0.006982, 0.007353, 0.055306
8299.999952316284, -0.213279, 0.486064, -0.136704, -0.022387, -0.064976, 0.061401
8309.999942779541, 0.302901, -0.447892, -0.17481, 0.007996, -0.174364, 0.045064
8319.999933242798, 0.23332, -0.44876, -0.267783, 0.176639, -0.009518, -0.13426
8329.999923706055, 0.237042, -0.411051, -0.045152, 0.232395, 0.248167, 0.217344
8339.999914169312, 0.379175, 0.056045, -0.193253, 0.141077, 0.048374, 0.069659
8349.999904632568, 0.471661, 0.01405, -0.279514, -0.003801, -0.002195, 0.090452
8369.999885559082, 0.380989, -0.159456, -0.29997, 0.182114, -0.053978, 0.075623
8379.999876022339, 0.196006, -0.08586, -0.214352, 0.170462, -0.084102, 0.055466
8389.999866485596, 0.053378, 0.194445, -0.120574, 0.09949, -0.074888, 0.013392
8399.999856948853, -0.056832, 0.374029, -0.084723, 0.03268, 0.002415, -0.017138
8409.99984741211, -0.049101, 0.357954, -0.079435, 0.037513, 0.083103, -0.039718
8419.999837875366, 0.058353, 0.348704, -0.078954, 0.084846, 0.078134, -0.046414
8429.999828338623, 0.125626, 0.315551, -0.059026, 0.098404, 0.103082, -0.024021
8439.99981880188, 0.130455, 0.339152, -0.06794, 0.103599, 0.074891, 0.005406
8449.999809265137, 0.113761, 0.368769, -0.07236, 0.081236, 0.047367, 0.029771
8459.999799728394, 0.093103, 0.425104, -0.022099, 0.091291, 0.009181, 0.036049
8470.00002861023, -0.026967, 0.505184, 0.512003, 0.083254, -0.033563, 0.043446
8480.000019073486, -0.417127, 0.726643, 1.244636, 0.057228, -0.05091, 0.041083
8490.000009536743, -0.237679, 0.616511, 1.526264, -0.016451, -0.197635, 0.035929
8500.0, -0.041702, -0.346744, 1.79923, -0.254186, -0.578528, 0.042289
8509.999990463257, 0.150818, -0.873115, 2.467047, 0.098163, -0.023316, -0.055656
8519.999980926514, 0.301672, -1.516328, 3.32143, 0.072414, -0.279836, 0.035668
8529.99997138977, 0.044859, -2.138319, 2.549424, 0.012014, -0.597668, 0.023116
8539.999961853027, -0.573101, -1.385374, 1.693804, -0.15946, -0.118414, 0.056767
8549.999952316284, -0.409445, -0.612185, 1.777552, -0.039514, 0.337986, 0.150938
8559.999942779541, 0.268816, -0.90022, 1.663428, 0.082074, 0.456673, 0.040043
8579.999923706055, 0.491546, 0.903657, 0.84881, -0.152942, 0.469671, -0.19914
8589.999914169312, 0.478284, 1.034633, 0.268748, -0.275418, 0.411235, 0.538036
8599.999904632568, 0.290333, 0.543902, -0.037201, -0.026562, 0.176868, 0.335313
8609.999895095825, 0.105066, -0.078282, -0.152018, 0.196866, 0.258014, 0.103725
8619.999885559082, 0.170552, -0.619349, -0.175054, 0.29644, 0.373764, 0.026194
8629.999876022339, 0.010981, -0.998442, -0.208978, 0.190383, 0.156277, -0.023011
8639.999866485596, 0.149335, -0.907638, -0.026999, 0.272076, -0.005912, -0.102081
8649.999856948853, 0.394105, -0.4432, 0.065585, 0.203767, -0.038516, -0.085135
8659.99984741211, 0.309816, 0.106124, 0.268498, 0.231293, -0.107882, 0.124033
8669.999837875366, 0.176119, 0.118035, 0.519016, 0.101084, -0.233127, 0.234482
8679.999828338623, 0.066237, -0.135428, 0.726526, 0.020165, -0.176087, 0.088648
8689.99981880188, -0.077408, -0.299279, 0.842505, 0.065984, -0.212251, 0.00573
8699.999809265137, -0.325364, -0.397279, 0.847938, -0.018832, -0.051846, -0.015772
8709.999799728394, -0.44513, -0.412298, 0.929861, -0.080629, 0.077175, -0.027397
8720.00002861023, -0.239125, -0.551583, 1.022265, -0.048915, 0.009473, -0.039935
8730.000019073486, 0.034523, -0.163834, 0.40767, -0.069493, -0.187424, -0.092444
8740.000009536743, -0.11711, 0.253748, 0.348147, -0.09002, -0.059716, -0.028089
8750.0, -0.185691, -0.119278, 0.3927, 0.196363, -0.046611, 0.063287
8759.999990463257, -0.126055, -0.162579, 0.29127, 0.159483, 0.087911, -0.046863
8779.99997138977, -0.015973, -0.192257, 0.223452, 0.15739, 0.088298, -0.047025
8789.999961853027, 0.131283, -0.142538, 0.152378, 0.099021, 0.039154, 0.052079
8799.999952316284, 0.431112, 0.084503, 0.133251, 0.098563, -0.006597, 0.117396
8809.999942779541, 0.667286, 0.499562, 0.063425, 0.140357, -0.008925, 0.155738
8819.999933242798, 0.893385, 0.902724, -0.068894, 0.254362, -0.140172, 0.188706
8829.999923706055, 1.191166, 1.477232, -0.231279, 0.113055, 0.027077, 0.247297
8839.999914169312, 1.376498, 1.627339, -0.446994, 0.258179, 0.004989, 0.151132
8849.999904632568, 1.387815, 1.870003, -0.763672, 0.07519, 0.235887, 0.142572
8859.999895095825, 1.504799, 2.294306, -1.133403, 0.032387, 0.378211, 0.139163
8869.999885559082, 1.433545, 2.83533, -1.693015, 0.170916, 0.169202, 0.145895
8879.999876022339, 1.048373, 2.976924, -1.601623, 0.295434, 0.044196, 0.135314
8889.999866485596, 0.408893, 2.481469, -1.379277, 0.21416, 0.101787, 0.029513
8899.999856948853, -0.067482, 1.290637, -0.99689, 0.234053, -0.063966, -0.101588
8909.99984741211, -0.319477, 0.555984, -0.729345, -0.107693, -0.033094, -0.23011
8919.999837875366, -0.488932, -0.034282, -0.075486, -0.282172, 0.135448, -0.148673
8929.999828338623, -0.643845, -0.321146, 0.247224, -0.168003, 0.004691, -0.074529
8939.99981880188, -0.769158, 0.007061, 0.391955, -0.394623, -0.03509, -0.064509
8949.999809265137, -0.734269, 0.077901, 0.521267, -0.270348, -0.010154, 0.064163
8959.999799728394, -0.6878, 0.121818, 0.625445, -0.118208, -0.018652, 0.055405
8970.00002861023, -0.690095, -0.054377, 0.54744, -0.132219, 0.026989, 0.110185
8990.000009536743, -0.534129, -0.16446, 0.22286, -0.20897, 0.089921, 0.115805
9000.0, -0.417561, -0.242939, -0.064802, -0.154797, 0.14206, 0.100209
9009.999990463257, -0.346609, -0.28001, -0.163721, 0.231727, -0.049579, 0.086866
9019.999980926514, -0.242202, -0.093743, -0.180075, 0.195793, 0.001551, 0.055683
9029.99997138977, -0.124644, -0.102923, -0.180676, 0.071851, 0.042102, 0.061179
9039.999961853027, -0.066305, -0.129717, -0.187967, 0.066044, 0.045256, 0.07908
9049.999952316284, -0.074909, -0.156926, -0.193764, 0.037226, 0.07058, 0.088301
9059.999942779541, -0.053192, -0.183988, -0.195447, 0.0042, 0.11103, 0.099689
9069.999933242798, -0.018917, -0.204687, -0.20932, 0.008782, 0.114314, 0.102467
9079.999923706055, -0.012606, -0.205782, -0.221475, 0.033942, 0.052304, 0.108159
9089.999914169312, -0.05184, -0.200859, -0.246654, 0.068957, 0.021242, 0.113996
9099.999904632568, -0.095275, -0.150208, -0.271438, 0.077908, 0.016717, 0.107926
9109.999895095825, -0.146189, -0.108404, -0.279011, 0.061941, 0.018498, 0.093176
9119.999885559082, -0.188067, -0.087594, -0.283647, 0.042398, 0.027451, 0.076974
9129.999876022339, -0.222132, -0.092711, -0.287731, 0.031282, 0.039942, 0.054589
9139.999866485596, -0.223485, -0.08166, -0.279352, 0.031228, 0.019652, 0.039713
9149.999856948853, -0.210091, -0.16104, -0.242252, 0.022181, -0.00286, 0.026482
9159.99984741211, -0.141876, -0.292283, -0.175276, 0.074267, -0.098865, 0.025361
9169.999837875366, -0.028034, -0.301963, -0.119505, 0.120609, -0.133913, 0.044059
9179.999828338623, 0.031375, -0.305375, -0.112458, 0.083655, -0.15615, 0.098903
9199.999809265137, 0.07227, -0.358276, -0.11588, 0.094114, -0.044647, 0.113416
9209.999799728394, 0.079915, -0.364478, -0.108307, 0.075414, -0.006035, 0.109215
9220.00002861023, 0.078172, -0.306659, -0.073741, 0.049792, 0.01366, 0.116212
9230.000019073486, 0.066353, -0.169157, -0.020032, 0.014614, 0.021085, 0.088568
9240.000009536743, 0.078878, -0.018157, -0.02608, -0.027325, 0.011532, 0.082514
9250.0, 0.098627, 0.036183, -0.003409, -0.041299, -0.001141, 0.072918
9259.999990463257, 0.094546, 0.043394, -0.004907, 0.00585, 3.65E-4, 0.048427
9269.999980926514, 0.112407, 0.023721, -0.005543, 0.005852, 5.05E-4, 0.049491
9279.99997138977, 0.128166, -0.041791, 0.001922, 0.011236, 0.00608, 0.049394
9289.999961853027, 0.124908, -0.099983, 0.007763, 0.030935, -0.008245, 0.054729
9299.999952316284, 0.091299, -0.153459, 0.019219, 0.036153, -0.017082, 0.056143
9309.999942779541, 0.036135, -0.198384, 0.027766, 0.033688, -0.010856, 0.05418
9319.999933242798, -0.022948, -0.228521, 0.039686, 0.030015, -0.001912, 0.043774
9329.999923706055, -0.010416, -0.228518, 0.038673, 0.014747, 0.024491, 0.020346
9339.999914169312, 0.053555, -0.182148, 0.011831, 0.005763, 0.029983, 0.02619
9349.999904632568, 0.07724, -0.149695, -0.006771, 0.013107, 0.031443, 0.04363
9359.999895095825, 0.060739, -0.13996, 1.85E-4, 0.037008, 0.026264, 0.053206
9369.999885559082, 0.049011, -0.119232, 0.009639, 0.043966, 0.020816, 0.044685
9379.999876022339, 0.049996, -0.090644, -0.006773, 0.028204, -0.014077, 0.037503
9399.999856948853, -0.021627, -0.13076, 0.006361, 0.03294, 0.020702, 0.047251
9409.99984741211, -0.052001, -0.263333, 0.014293, 0.043438, 0.050943, 0.040014
9429.999828338623, 0.036725, -0.307037, -0.02281, 0.038642, 0.031602, 0.012637
9419.999837875366, -0.021229, -0.322325, -0.011124, 0.038004, 0.031606, 0.011956
9439.99981880188, 0.037705, -0.273761, -0.00864, 0.030144, 0.061281, 0.046009
9449.999809265137, 0.019871, -0.257757, -0.012847, 0.008546, -0.019226, 0.034831
9459.999799728394, 0.025831, -0.220481, -0.029334, 0.039083, -0.097476, 0.044409
9470.00002861023, 0.028718, -0.256572, -4.75E-4, 0.042692, -0.054308, 0.037354
9480.000019073486, -0.039145, -0.292986, 0.01633, 0.043631, -0.057627, 0.033973
9490.000009536743, -0.031599, -0.281083, 0.076335, 0.068115, -0.062183, 0.032512
9500.0, 0.062843, -0.260519, 0.045391, 0.009624, 0.099283, 0.023477
9509.999990463257, 0.080451, -0.252932, 0.038158, -0.030437, -0.086222, 0.034997
9519.999980926514, 0.09355, -0.300135, 0.072259, -0.030752, -0.08601, 0.036283
9529.99997138977, 0.126699, -0.33453, 0.068412, 0.005487, -0.008386, 0.015516
9539.999961853027, 0.145978, -0.372665, 0.058296, -0.027151, -0.004654, 0.027874
9549.999952316284, 0.14354, -0.391104, 0.038903, 0.008946, -8.03E-4, 0.023861
9559.999942779541, 0.137273, -0.398437, 0.024219, 0.009198, -5.69E-4, 0.025866
9569.999933242798, 0.149832, -0.390911, 0.020594, 0.015288, -0.006526, 0.014445
9579.999923706055, 0.162334, -0.376026, 0.024202, 0.018646, -0.006055, 0.011649
9589.999914169312, 0.173528, -0.359993, 0.033985, 0.024066, -0.006427, 0.015377
9609.999895095825, 0.189947, -0.359886, 0.032994, 0.030178, 9.5E-4, 0.021451
9619.999885559082, 0.179513, -0.324048, 0.028559, 0.034643, -0.001376, 0.024905
9629.999876022339, 0.182927, -0.282006, 0.031578, 0.04113, -0.00957, 0.028069
9639.999866485596, 0.182585, -0.244862, 0.02604, 0.047388, -0.017076, 0.029543
9649.999856948853, 0.197338, -0.200238, 0.024273, 0.053473, -0.024002, 0.025951
9659.99984741211, 0.2145, -0.151863, 0.014095, 0.058636, -0.017065, 0.021204
9669.999837875366, 0.231796, -0.109656, 0.0075, 0.056157, -0.010051, 0.020772
9679.999828338623, 0.25032, -0.063722, -3.67E-4, 0.054766, -0.005956, 0.018637
9689.99981880188, 0.271286, -0.00792, -0.003459, 0.053486, -0.001421, 0.019168
9699.999809265137, 0.283526, 0.030399, 0.003573, 0.047317, -0.002245, 0.017055
9709.999799728394, 0.299662, 0.062611, 0.008167, 0.050224, -0.008262, 0.020764
9720.00002861023, 0.326067, 0.077525, 0.018108, 0.048766, -0.016523, 0.018165
9730.000019073486, 0.34754, 0.081144, 0.044113, 0.05552, -0.034688, 0.01506
9740.000009536743, 0.374067, 0.079866, 0.065554, 0.054337, -0.033867, 0.011905
9750.0, 0.386831, 0.066274, 0.073326, 0.055558, -0.028142, 0.01184
9759.999990463257, 0.402091, 0.054058, 0.066394, 0.051274, -0.01579, 0.011606
9769.999980926514, 0.403334, 0.0542, 0.050465, 0.043463, -0.006226, 0.021322
9779.99997138977, 0.412167, 0.044553, 0.023831, 0.031797, 0.004254, 0.031835
9789.999961853027, 0.409804, 0.02369, 0.0033, 0.023251, 0.016759, 0.048329
9809.999942779541, 0.394891, -0.005927, -0.014812, 0.015748, 0.022098, 0.054866
9819.999933242798, 0.362409, -0.046872, -0.021949, 0.008955, 0.025198, 0.061881
9829.999923706055, 0.321024, -0.08049, -0.024432, -0.001905, 0.037958, 0.063067
9839.999914169312, 0.267071, -0.13039, -0.017134, -0.010342, 0.052211, 0.058633
9849.999904632568, 0.206843, -0.174108, -0.008681, -0.009888, 0.052667, 0.061175
9859.999895095825, 0.156706, -0.217672, -0.011122, -0.016105, 0.052631, 0.075613
9869.999885559082, 0.110178, -0.241416, -0.015072, -0.019161, 0.065949, 0.091605
9879.999876022339, 0.064572, -0.228017, -0.023316, -0.015898, 0.076119, 0.104773
9889.999866485596, 0.022537, -0.210893, -0.040345, -0.012038, 0.073939, 0.11102
9899.999856948853, -0.019379, -0.186341, -0.048724, -0.012041, 0.063099, 0.114469
9909.99984741211, -0.063626, -0.181707, -0.043308, -0.026819, 0.044065, 0.100331
9919.999837875366, -0.091469, -0.17337, -0.025454, -0.028947, 0.039591, 0.100397
9929.999828338623, -0.115386, -0.193429, -0.015806, -0.024319, 0.02343, 0.073407
9939.99981880188, -0.134091, -0.218391, -0.002163, -0.029304, 0.011484, 0.056821
9949.999809265137, -0.140202, -0.239547, 0.009143, -0.031677, 0.002866, 0.040394
9959.999799728394, -0.137396, -0.269287, 0.018271, -0.040881, -0.034906, 0.032144
9970.00002861023, -0.10928, -0.301518, 0.04743, -0.052648, -0.035738, 0.019441
9980.000019073486, -0.086061, -0.352248, 0.067018, -0.095537, -0.06077, -0.025715
9990.000009536743, -0.019443, -0.438526, 0.086427, -0.099438, -0.057176, -0.055571
10000.0, 0.053139, -0.504752, 0.072649, -0.114203, -0.064405, -0.083923
10019.999980926514, 0.124465, -0.576847, 0.020932, -0.132183, -0.037983, -0.107126
10029.99997138977, 0.214501, -0.625176, -0.049314, -0.149676, -0.010285, -0.136262
10039.999961853027, 0.345557, -0.600268, -0.122656, -0.128122, -0.007109, -0.147692
10049.999952316284, 0.488652, -0.507409, -0.179801, 0.012737, -0.012486, -0.132104
10059.999942779541, 0.57681, -0.338658, -0.18383, 0.015505, -0.011501, -0.12587
10069.999933242798, 0.597656, -0.120197, -0.118535, 0.106251, -0.036934, -0.085739
10079.999923706055, 0.596922, 0.119787, 0.018445, 0.184325, -0.052436, -0.033356
10089.999914169312, 0.550792, 0.346198, 0.119432, 0.232786, -0.058719, 0.016625
10099.999904632568, 0.473882, 0.477597, 0.173747, 0.232224, -0.066208, 0.060682
10109.999895095825, 0.373243, 0.571013, 0.169491, 0.179523, -0.010736, 0.075248
10119.999885559082, 0.298416, 0.598146, 0.125027, 0.106645, 0.010948, 0.088021
10129.999876022339, 0.280578, 0.603695, 0.041277, 0.021771, 0.06084, 0.078249
10139.999866485596, 0.283192, 0.582185, -0.045401, -0.045234, 0.100268, 0.054529
10149.999856948853, 0.335486, 0.522169, -0.076747, -0.087972, 0.064396, 0.04235
10159.99984741211, 0.362148, 0.505146, -0.092019, -0.091115, 0.066491, 0.046345
10169.999837875366, 0.400395, 0.465824, -0.094482, -0.099333, 0.055337, 0.073919
10179.999828338623, 0.438977, 0.530326, -0.090108, -0.113508, 0.036966, 0.08315
10189.99981880188, 0.502617, 0.480999, -0.061375, -0.103999, 5.56E-4, 0.106841
10220.00002861023, 0.595769, 0.533683, 0.062952, -0.061221, -0.049739, 0.063334
10199.999809265137, 0.53357, 0.557418, -0.009481, -0.059297, -0.051447, 0.058364
10230.000019073486, 0.565446, 0.538212, 0.090646, -0.04135, -0.006123, 0.026563
10240.000009536743, 0.565357, 0.550434, 0.107609, -0.003307, -0.021011, 0.056185
10250.0, 0.523796, 0.536583, 0.107243, -0.013231, 0.026519, 0.076886
10259.999990463257, 0.510959, 0.558802, 0.103003, -0.029351, 0.009863, 0.150184
10269.999980926514, 0.488322, 0.686135, 0.091942, -0.065355, 0.032129, 0.172691
10279.99997138977, 0.494265, 0.587254, 0.090017, -0.098699, 0.009881, 0.190884
10289.999961853027, 0.508487, 0.551449, 0.09328, -0.10436, 0.008757, 0.167672
10299.999952316284, 0.497502, 0.510475, 0.104851, -0.089529, 0.01877, 0.121198
10309.999942779541, 0.48274, 0.47057, 0.13352, -0.012139, -0.016421, 0.101961
10319.999933242798, 0.49539, 0.474012, 0.174117, 0.019284, -0.026245, 0.112203
10329.999923706055, 0.517422, 0.557883, 0.215945, 0.03651, -0.025922, 0.144458
10339.999914169312, 0.551339, 0.725835, 0.267564, 0.037944, -0.052385, 0.182136
10349.999904632568, 0.541574, 0.693298, 0.305992, 0.031541, -0.07117, 0.207084
10359.999895095825, 0.53744, 0.736261, 0.340774, -0.048682, -0.013369, 0.177479
10369.999885559082, 0.554346, 0.829893, 0.394628, -0.087426, -0.025307, 0.178349
10379.999876022339, 0.557159, 0.662676, 0.428153, -0.124987, -0.013674, 0.169287
10389.999866485596, 0.592331, 0.551173, 0.477148, -0.16301, 0.082369, 0.107492
10399.999856948853, 0.67333, 0.540145, 0.522656, -0.166539, 0.1273, 0.115996
10409.99984741211, 0.685876, 0.414987, 0.561743, -0.139658, 0.134454, 0.144531
10429.999828338623, 0.701318, 0.38529, 0.574732, -0.148905, 0.209352, 0.121752
10439.99981880188, 0.698156, 0.458089, 0.591854, -0.133491, 0.184195, 0.171738
10449.999809265137, 0.684936, 0.664458, 0.600444, -0.090121, 0.177763, 0.20283
10459.999799728394, 0.608123, 0.641503, 0.627931, -0.075011, 0.189537, 0.27062
10470.00002861023, 0.598643, 0.708454, 0.600908, -0.111718, 0.263869, 0.273902
10480.000019073486, 0.585939, 0.855594, 0.594562, -0.16593, 0.28804, 0.26919
10490.000009536743, 0.582998, 0.758095, 0.569183, -0.178935, 0.249186, 0.300523
10500.0, 0.599192, 0.78062, 0.549413, -0.258562, 0.298827, 0.273795
10509.999990463257, 0.591674, 0.776688, 0.570221, -0.306484, 0.298029, 0.316149
10519.999980926514, 0.496937, 0.78196, 0.610464, -0.373556, 0.306935, 0.351736
10529.99997138977, 0.164419, 0.538605, 0.6343, -0.456323, 0.341377, 0.364524
10539.999961853027, -0.102584, 0.297893, 0.538846, -0.579223, 0.461084, 0.288912
10549.999952316284, -0.259935, -0.218953, 0.271799, -0.792366, 0.981169, -0.004357
10559.999942779541, -0.497208, -0.869131, -0.224723, -0.695135, 1.058622, 0.023643
10569.999933242798, -0.897475, -1.349932, -0.540037, -0.364295, 0.902026, 0.242899
10579.999923706055, -1.40264, -1.509556, -0.596146, 0.004856, 0.674325, 0.510887
10589.999914169312, -2.004939, -0.979941, -0.62482, 0.166553, 0.470933, 0.726011
10599.999904632568, -2.556157, -0.099552, -0.711415, 0.155125, 0.584617, 0.855699
10609.999895095825, -3.11459, 0.458166, -0.814743, 0.086275, 0.407993, 0.745605
10629.999876022339, -3.561451, 0.677286, -1.013767, -0.028443, 0.145688, 0.517077
10639.999866485596, -3.882886, 0.846849, -1.259212, -0.098529, 0.069789, 0.389837
10649.999856948853, -3.98806, 0.855321, -1.45834, -0.150894, 0.092084, 0.316173
10659.99984741211, -3.819374, 0.608471, -1.687217, -0.127396, 0.183738, 0.212863
10669.999837875366, -3.492383, 0.458895, -1.899506, -0.080592, 0.347007, 0.00484
10679.999828338623, -3.292433, 0.263168, -2.009829, -0.035161, 0.55814, -0.225133
10689.99981880188, -3.298753, -0.012861, -1.984411, 0.042389, 0.707437, -0.443942
10699.999809265137, -3.387591, -0.22266, -1.806769, 0.197223, 0.762079, -0.52738
10709.999799728394, -3.429235, -0.480564, -1.610464, 0.395141, 0.773277, -0.515318
10720.00002861023, -3.393185, -0.823673, -1.519526, 0.567686, 0.686521, -0.355203
10730.000019073486, -3.312913, -1.041974, -1.531853, 0.445036, 0.554349, -0.320167
10740.000009536743, -3.32515, -0.95025, -1.565465, 0.285399, 0.428817, -0.28826
10750.0, -3.400195, -0.763317, -1.642065, 0.174951, 0.341724, -0.214786
10759.999990463257, -3.552215, -0.731069, -1.761317, 0.103977, 0.281834, -0.2082
10769.999980926514, -3.689601, -0.76989, -1.801892, 0.074264, 0.247715, -0.283412
10779.99997138977, -3.818003, -1.093754, -1.763938, 0.034916, 0.204983, -0.350031
10789.999961853027, -3.902874, -1.605152, -1.600771, 0.0072, 0.176451, -0.458536
10799.999952316284, -3.946974, -2.152355, -1.415561, -0.026432, 0.120233, -0.508306
10809.999942779541, -3.820307, -2.588305, -1.249388, -0.084229, 0.064034, -0.624465
10819.999933242798, -3.735951, -3.084528, -1.00554, -0.094514, 0.01109, -0.712468
10839.999914169312, -3.643581, -3.490331, -0.772916, -0.073681, -0.090041, -0.828545
10849.999904632568, -3.456744, -3.593362, -0.594323, -0.049442, -0.182087, -0.912416
10859.999895095825, -3.217488, -3.491683, -0.456449, 0.016719, -0.254227, -0.898664
10869.999885559082, -2.916401, -3.24365, -0.325059, 0.103987, -0.335906, -0.851268
10879.999876022339, -2.578222, -2.907531, -0.200752, 0.20027, -0.534659, -0.662285
10889.999866485596, -2.288169, -2.562727, -0.114081, 0.189544, -0.582469, -0.595647
10899.999856948853, -2.047504, -2.20808, -0.056497, 0.146042, -0.530237, -0.553656
10909.99984741211, -1.82882, -1.943457, -0.044316, 0.081318, -0.465898, -0.55351
10919.999837875366, -1.648543, -1.761929, -0.031287, 0.028906, -0.400901, -0.555925
10929.999828338623, -1.464102, -1.627054, -0.05543, -0.006166, -0.367227, -0.586928
10939.99981880188, -1.228659, -1.558999, -0.18441, -0.032129, -0.365691, -0.571951
10949.999809265137, -1.025082, -1.454339, -0.277675, -0.034904, -0.344446, -0.529633
10959.999799728394, -0.788594, -1.496679, -0.366757, -0.016904, -0.349624, -0.487788
10970.00002861023, -0.585447, -1.482426, -0.445011, 0.034712, -0.388605, -0.413726
10980.000019073486, -0.400667, -1.531411, -0.51633, 0.081251, -0.391606, -0.367358
10990.000009536743, -0.233279, -1.469423, -0.561565, 0.062935, -0.377604, -0.354002
11000.0, -0.059454, -1.276573, -0.575802, 0.038875, -0.369185, -0.283886
11009.999990463257, 0.122623, -1.02047, -0.605705, -0.01531, -0.356433, -0.175771
11019.999980926514, 0.262061, -0.799209, -0.640542, -0.104696, -0.347754, -0.010219
11039.999961853027, 0.404601, -0.637558, -0.643665, -0.171929, -0.326271, 0.153453
11049.999952316284, 0.589836, -0.726754, -0.639486, -0.208787, -0.302261, 0.414129
11059.999942779541, 0.802102, -1.010057, -0.621827, -0.18497, -0.291774, 0.382792
11069.999933242798, 1.002477, -1.376236, -0.6103, -0.165841, -0.273279, 0.270725
11079.999923706055, 1.191452, -1.603686, -0.633168, -0.135848, -0.24278, 0.182981
11089.999914169312, 1.366167, -1.514402, -0.683664, -0.017359, -0.226698, 0.170169
11099.999904632568, 1.568845, -1.160541, -0.706334, 0.131455, -0.219067, 0.16126
11109.999895095825, 1.792733, -0.773409, -0.699826, 0.284619, -0.237419, 0.099581
11119.999885559082, 1.722429, -0.398106, -0.674062, 0.437552, -0.326564, 0.065532
11129.999876022339, 0.452109, 0.559648, -0.477995, 0.653845, -0.358736, 0.211084
11139.999866485596, 0.145861, 0.697737, 0.083101, 1.18412, -0.037175, 1.08236
11149.999856948853, -0.33606, -0.437533, 0.471829, 1.579767, 0.849632, 1.007548
11159.99984741211, -1.974062, -0.741394, 0.578409, 1.994653, 2.244767, 0.480227
11169.999837875366, -1.462174, -0.372382, 0.447113, 1.245365, 4.015169, 1.677128
11179.999828338623, 0.471372, 1.469584, 0.294306, 0.102206, 2.668353, 0.874361
11189.99981880188, 2.310174, 2.095137, 0.457466, -0.638252, -0.458749, -0.724252
11199.999809265137, 2.787468, 1.673979, 0.294857, -0.243535, -1.792442, -1.775901
11209.999799728394, 2.401495, 2.128229, -0.026223, -0.087906, -1.614972, -0.537998
11220.00002861023, 2.651495, 2.967741, -0.118958, -0.494169, -0.721287, -0.342271
11230.000019073486, 3.320635, 3.669091, -0.392184, -0.301044, -0.129046, -1.027186
11250.0, 3.803561, 3.576166, -0.757712, -0.167685, 0.225689, -1.577007
11259.999990463257, 3.734481, 2.795262, -1.03129, -0.055088, 0.718772, -1.375989
11269.999980926514, 3.20132, 1.953164, -1.126568, -0.200899, 1.417726, -0.821688
11279.99997138977, 2.678645, 1.385841, -0.95038, -0.381245, 1.78149, -0.359624
11289.999961853027, 2.626696, 1.305025, -0.644379, -0.275493, 1.344847, -0.126132
11299.999952316284, 2.782492, 1.461525, -0.176267, -0.034276, 0.435682, -0.138762
11309.999942779541, 2.836497, 1.296096, 0.412324, 0.263676, -0.199449, -0.212887
11319.999933242798, 3.002372, 1.132576, 0.563427, 0.452973, -0.546235, -0.223424
11329.999923706055, 3.172574, 1.294058, 0.454004, 0.450635, -0.709404, -0.210917
11339.999914169312, 3.245603, 1.730407, 0.38269, 0.302826, -0.639359, -0.157131
11349.999904632568, 3.194503, 2.215975, 0.398285, 0.188426, -0.456798, -0.083673
11359.999895095825, 3.036942, 2.315395, 0.374708, 0.127495, -0.241512, -0.070728
11369.999885559082, 2.845581, 2.098203, 0.330233, -0.064575, 0.121369, -0.218589
11379.999876022339, 2.683397, 1.727805, 0.289992, -0.186335, 0.176312, -0.231221
11389.999866485596, 2.512741, 1.459786, 0.274882, -0.255301, 0.149307, -0.188205
11399.999856948853, 2.390077, 1.337675, 0.296022, -0.218619, 0.05125, -0.056289
11409.99984741211, 2.306206, 1.263561, 0.372103, -0.128906, -0.05088, 0.064736
11419.999837875366, 2.224012, 1.282283, 0.439281, -0.022633, -0.136762, 0.153211
11429.999828338623, 2.152019, 1.432056, 0.517886, 0.023184, -0.198948, 0.200187
11449.999809265137, 2.108608, 1.633945, 0.596024, 0.027808, -0.24878, 0.198044
11459.999799728394, 2.052857, 1.804767, 0.683093, -0.0244, -0.277957, 0.162896
11470.00002861023, 1.998869, 1.918798, 0.760108, -0.082099, -0.266286, 0.107674
11480.000019073486, 1.895793, 1.871855, 0.826867, -0.156445, -0.220081, 0.056867
11490.000009536743, 1.740459, 1.59005, 0.844099, -0.188064, -0.151616, 0.020452
11500.0, 1.647478, 1.247428, 0.785991, -0.198837, -0.071898, 0.031296
11509.999990463257, 1.592582, 0.882829, 0.721446, -0.249654, 0.006334, 0.00816
11519.999980926514, 1.622134, 0.539703, 0.663889, -0.281278, 0.043062, -0.020036
11529.99997138977, 1.665191, 0.379698, 0.604662, -0.232797, 0.029911, 0.005567
11539.999961853027, 1.728965, 0.447134, 0.572557, -0.193685, -0.069587, 0.138167
11549.999952316284, 1.811163, 0.579784, 0.592354, -0.210615, -0.015327, 0.167583
11559.999942779541, 1.820447, 0.6818, 0.672938, -0.179756, 0.084997, 0.183964
11569.999933242798, 1.692617, 0.725758, 0.794222, -0.125471, 0.115639, 0.209103
11579.999923706055, 1.496067, 0.685268, 0.908581, -0.048267, 0.058579, 0.223827
11589.999914169312, 1.342068, 0.680191, 0.960408, 0.054414, 0.035869, 0.227999
11599.999904632568, 1.24498, 0.803114, 0.979007, 0.121287, 0.083456, 0.213408
11609.999895095825, 1.118774, 0.915815, 0.869808, 0.118878, 0.115825, 0.234245
11619.999885559082, 0.994288, 0.974335, 0.734566, -0.020264, 0.243889, 0.234517
11629.999876022339, 0.917243, 0.952885, 0.584188, -0.214953, 0.338611, 0.260107
11639.999866485596, 0.88719, 0.905604, 0.450869, -0.384915, 0.441254, 0.270542
11659.99984741211, 0.894082, 0.972974, 0.386056, -0.486158, 0.509315, 0.279081
11669.999837875366, 0.869892, 0.998514, 0.419616, -0.500951, 0.537817, 0.335333
11679.999828338623, 0.691119, 0.943547, 0.503815, -0.472641, 0.54853, 0.40333
11689.99981880188, 0.307903, 0.721969, 0.548628, -0.489853, 0.5341, 0.458493
11699.999809265137, -0.183042, 0.370501, 0.37577, -0.616829, 0.596828, 0.452647
11709.999799728394, -0.563027, 0.015146, 0.010799, -0.941422, 1.126712, 0.15064
11720.00002861023, -0.953525, -0.309682, -0.461539, -0.771255, 1.280736, 0.100285
11730.000019073486, -1.601308, -0.527946, -0.84986, -0.432748, 1.046946, 0.35986
11740.000009536743, -2.439398, -0.6313, -1.069938, -0.188135, 0.767528, 0.607733
11750.0, -3.266755, -0.503396, -1.136779, -0.098427, 0.601974, 0.607174
11759.999990463257, -3.952556, -0.386848, -1.222234, -0.121759, 0.399798, 0.477765
11769.999980926514, -4.379249, -0.162682, -1.4186, -0.148072, 0.175577, 0.272956
11779.99997138977, -4.57343, 0.342922, -1.534186, -0.063623, 0.13071, 0.328574
11789.999961853027, -4.4791, 0.524286, -1.562868, -0.010572, 0.19262, 0.304774
11799.999952316284, -3.968508, 0.481215, -1.662698, 0.107748, 0.370561, 0.159945
11809.999942779541, -3.551812, 0.062984, -1.775947, 0.223131, 0.579382, -0.292939
11819.999933242798, -3.546498, -0.802844, -1.752669, 0.283498, 0.638248, -0.937736
11829.999923706055, -3.670165, -1.364548, -1.664027, 0.317825, 0.68048, -1.102739
11839.999914169312, -3.587094, -1.333033, -1.675624, 0.352391, 0.798835, -0.745354
11859.999895095825, -3.392321, -1.791197, -1.758289, 0.326775, 0.933234, -0.192783
11869.999885559082, -3.428901, -2.209849, -1.706371, -0.110122, 0.770493, -0.077951
11879.999876022339, -3.732696, -1.68925, -1.480386, -4.96E-4, 0.493582, -0.086541
11889.999866485596, -3.923295, -1.133383, -1.395632, 0.195998, 0.269352, -0.209203
11899.999856948853, -4.050872, -1.124824, -1.328937, 0.27409, 0.159297, -0.54318
11909.99984741211, -4.008214, -1.497733, -1.219004, 0.368698, 0.025618, -0.679795
11919.999837875366, -3.951001, -1.949351, -1.150458, 0.251459, -0.107366, -0.857021
11929.999828338623, -3.869606, -1.858114, -1.060066, 0.037605, -0.177108, -0.805034
11939.99981880188, -3.503364, -1.698292, -0.98021, -0.119552, -0.251664, -0.710451
11949.999809265137, -3.16162, -1.768323, -0.9373, -0.232153, -0.368838, -0.62588
11959.999799728394, -2.946484, -2.085274, -0.887145, -0.259288, -0.403433, -0.617523
11970.00002861023, -2.797073, -2.679529, -0.849201, -0.133194, -0.43216, -0.710318
11980.000019073486, -2.655242, -3.269163, -0.77833, -0.008, -0.470106, -0.870058
11990.000009536743, -2.431001, -3.744988, -0.653001, 0.080249, -0.530935, -0.925576
12000.0, -2.07907, -3.95176, -0.519331, 0.125682, -0.576836, -0.912678
12009.999990463257, -1.546417, -3.755097, -0.436468, 0.086908, -0.593347, -0.836889
12019.999980926514, -0.946704, -3.300215, -0.423225, 0.018691, -0.60417, -0.743421
12029.99997138977, -0.302133, -2.794503, -0.538969, -0.0903, -0.65588, -0.725747
12039.999961853027, 0.354211, -2.343735, -0.729656, -0.117344, -0.618672, -0.772859
12049.999952316284, 0.904499, -2.039487, -0.925534, -0.120502, -0.614478, -0.797356
12069.999933242798, 1.38204, -1.782087, -1.044404, -0.10227, -0.634603, -0.758364
12079.999923706055, 1.813197, -1.551694, -1.073956, -0.042805, -0.68956, -0.668713
12089.999914169312, 2.208819, -1.291327, -1.017449, 0.047105, -0.74184, -0.552579
12099.999904632568, 2.533231, -0.97591, -0.940824, 0.098188, -0.744619, -0.357678
12109.999895095825, 2.573617, -0.681959, -0.867937, 0.162471, -0.654355, -0.10768
12119.999885559082, 1.982127, -0.487599, -0.728903, 0.246516, -0.436741, 0.205506
12129.999876022339, 1.076656, -0.511694, -0.718265, 0.349076, -0.073436, 0.64455
12139.999866485596, 0.263971, -1.163213, -0.73617, 0.377644, 0.382611, 0.986772
12149.999856948853, -0.706683, -1.635834, -0.525123, 0.280587, 0.991955, 0.942559
12159.99984741211, -1.371445, -1.706216, -0.280882, 0.36903, 1.650028, 1.021305
12169.999837875366, -1.502045, -1.340426, -0.05101, 0.530984, 1.61217, 1.061909
12179.999828338623, -1.324622, -0.946023, 0.231883, 0.538554, 0.940288, 0.911774
12189.99981880188, -1.222275, -0.790741, 0.368103, 0.481527, 0.282621, 0.652562
12199.999809265137, -1.704459, -0.12608, 0.3953, 0.416498, -0.42119, 0.355143
12209.999799728394, -1.433052, 0.242269, 0.900752, 0.811209, -0.13566, 0.9072
12220.00002861023, -0.901528, -0.643922, 1.366135, 1.002712, 0.932411, 0.426574
12230.000019073486, -2.581208, -0.743045, 0.924112, 0.911973, 2.122845, 0.531549
12240.000009536743, -2.173899, 1.343879, 0.258234, -0.054553, 2.7563, 1.47911
12250.0, -0.293807, 1.25017, -0.042958, -0.780913, 0.921142, -0.780034
12259.999990463257, 2.448985, 2.025853, -0.170989, -0.475303, -1.126554, -1.871736
12279.99997138977, 2.729318, 0.674708, 0.112195, 0.09295, -2.10095, -3.16436
12289.999961853027, 1.69247, 0.762888, -0.085777, 1.112282, -2.277059, -2.002272
12299.999952316284, 2.877063, 2.464766, -0.146463, 0.455189, -1.239888, 0.702583
12309.999942779541, 4.069515, 3.971863, -0.419602, -0.271658, 0.127405, -0.419975
12319.999933242798, 4.199258, 4.21956, -0.954191, -0.182055, 0.835324, -1.84528
12329.999923706055, 3.532604, 2.889621, -1.21977, -0.314147, 1.440532, -1.594432
12339.999914169312, 3.019213, 1.830361, -1.21298, -0.461093, 1.787598, -0.764526
12349.999904632568, 2.922616, 1.520342, -0.889037, -0.365647, 1.306597, -0.263079
12359.999895095825, 3.035473, 1.533292, -0.439971, 0.174877, -0.17633, -0.242439
12369.999885559082, 3.207129, 1.755231, 0.051795, 0.35253, -0.514183, -0.228974
12379.999876022339, 3.38857, 1.99445, 0.4085, 0.38101, -0.739393, -0.233617
12389.999866485596, 3.516117, 2.436785, 0.545143, 0.374963, -0.787294, -0.216887
12399.999856948853, 3.520448, 2.775735, 0.389857, 0.391516, -0.619682, -0.192202
12409.99984741211, 3.225875, 2.369228, 0.284538, 0.304019, -0.303053, -0.292019
12419.999837875366, 2.846967, 2.207231, 0.160384, 0.199556, 0.03506, -0.31299
12429.999828338623, 2.609434, 1.789295, 0.130895, 0.071589, 0.206616, -0.258644
12439.99981880188, 2.385316, 1.571359, 0.150962, -0.144785, 0.1975, -0.281155
12449.999809265137, 2.352083, 1.761189, 0.200015, -0.291957, 0.088869, -0.192931
12459.999799728394, 2.349904, 2.007005, 0.231401, -0.339313, 0.010132, -0.001285
12480.000019073486, 2.381457, 2.307826, 0.362915, -0.298848, -0.089658, 0.125249
12490.000009536743, 2.27646, 2.334998, 0.438207, -0.148175, -0.172554, 0.165101
12500.0, 2.124929, 2.211511, 0.601223, -0.047407, -0.221577, 0.115047
12509.999990463257, 1.94891, 2.145772, 0.791118, 0.020281, -0.235418, 0.072536
12519.999980926514, 1.812306, 2.045986, 0.940457, 0.003786, -0.194337, -0.023803
12529.99997138977, 1.769127, 1.942408, 1.020076, -0.022754, -0.178412, 0.004946
12539.999961853027, 1.761213, 1.701116, 1.031393, -0.047804, -0.182461, 0.052324
12549.999952316284, 1.738549, 1.266104, 0.980766, -0.060595, -0.178365, 0.069057
12559.999942779541, 1.703899, 0.890919, 0.866407, -0.064081, -0.142391, 0.071554
12569.999933242798, 1.716927, 0.966474, 0.715692, -0.064687, -0.064499, 0.04188
12579.999923706055, 1.77682, 1.309349, 0.574632, -0.140484, -0.003681, 0.084274
12589.999914169312, 1.767515, 1.490475, 0.500306, -0.253011, 0.049598, 0.23583
12599.999904632568, 1.661847, 1.443953, 0.51551, -0.262044, 0.054847, 0.250716
12609.999895095825, 1.544238, 1.325343, 0.564872, -0.104674, 0.045944, 0.264717
12619.999885559082, 1.413406, 1.272208, 0.612938, -0.119306, 0.087859, 0.298134
12629.999876022339, 1.268854, 1.334329, 0.622067, -0.129494, 0.092953, 0.308725
12639.999866485596, 1.198481, 1.438712, 0.658536, -0.240221, 0.109364, 0.269498
12649.999856948853, 1.065718, 1.460919, 0.71634, -0.338986, 0.154063, 0.179462
12659.99984741211, 0.924457, 1.30732, 0.791708, -0.373349, 0.177046, 0.140375
12669.999837875366, 0.830856, 1.178323, 0.770458, -0.418196, 0.226563, 0.159645
12689.99981880188, 0.772621, 1.177667, 0.660474, -0.505769, 0.34479, 0.244175
12699.999809265137, 0.685591, 1.151887, 0.576253, -0.582566, 0.463668, 0.330701
12709.999799728394, 0.541583, 1.010183, 0.559396, -0.5911, 0.510805, 0.384103
12720.00002861023, 0.250793, 0.901879, 0.582782, -0.537295, 0.500535, 0.405456
12730.000019073486, -0.269214, 0.707526, 0.528271, -0.462789, 0.452514, 0.433394
12740.000009536743, -0.677041, 0.38378, 0.353692, -0.413901, 0.391966, 0.412075
12750.0, -1.055982, 0.067106, 0.094785, -0.454409, 0.531804, 0.3079
12759.999990463257, -1.66576, -0.063118, -0.586369, -0.474907, 0.937972, 0.221319
12769.999980926514, -2.361475, -0.192394, -1.294536, -0.336821, 1.06609, 0.328689
12779.99997138977, -3.144073, -0.593, -1.713613, 0.06648, 0.825747, 0.378482
12789.999961853027, -3.707562, -0.595484, -1.821048, 0.525007, 0.675335, 0.526722
12799.999952316284, -4.091552, 0.236117, -1.868838, 0.680659, 0.405009, 0.535032
12809.999942779541, -4.301063, 1.207419, -1.78769, 0.64341, 0.157216, 0.468297
12819.999933242798, -4.023451, 1.797834, -1.798555, 0.655671, 0.048337, 0.345668
12829.999923706055, -3.58388, 1.939028, -1.803177, 0.776243, 0.284563, 0.028083
12839.999914169312, -3.285019, 1.584157, -1.742588, 0.802122, 0.594097, -0.548003
12849.999904632568, -3.148162, 0.990492, -1.63738, 0.814952, 0.707639, -0.990151
12859.999895095825, -3.057153, 0.569018, -1.599517, 0.871701, 0.75294, -0.895944
12869.999885559082, -2.916301, 0.332782, -1.787275, 0.803677, 0.871378, -0.312052
12889.999866485596, -2.952867, 0.031672, -1.888195, 0.495986, 0.976574, 0.183692
12899.999856948853, -3.309539, -0.890985, -1.837297, 0.037013, 0.853086, 0.214144
12909.99984741211, -3.964382, -1.795154, -1.69903, -0.063192, 0.618073, 0.004345
12919.999837875366, -4.327303, -1.447657, -1.518809, 0.015546, 0.44692, -0.472706
12929.999828338623, -4.06209, -0.968319, -1.126927, 0.112794, 0.271046, -0.659972
12939.99981880188, -3.805948, -0.899831, -0.854566, 0.2449, -0.26039, -0.599009
12949.999809265137, -3.647473, -1.360372, -0.682612, 0.162293, -0.450851, -0.693583
12959.999799728394, -3.646611, -1.584889, -0.601543, 0.162388, -0.436829, -0.729199
12970.00002861023, -3.648398, -1.808622, -0.614962, 0.060245, -0.422056, -0.694697
12980.000019073486, -3.290674, -1.97471, -0.608221, -0.027324, -0.392998, -0.721941
12990.000009536743, -2.816726, -1.989976, -0.512816, -0.079704, -0.397302, -0.704681
13000.0, -2.416754, -2.204883, -0.406525, -0.111452, -0.513358, -0.566106
13009.999990463257, -2.072012, -2.600549, -0.315149, -0.118171, -0.595008, -0.600513
13019.999980926514, -1.599415, -2.88429, -0.206647, -0.045862, -0.632125, -0.723227
13029.99997138977, -0.969582, -2.809979, -0.063899, 0.051399, -0.695446, -0.827381
13039.999961853027, -0.353887, -2.432539, 0.051452, 0.125878, -0.789783, -0.851997
13049.999952316284, 0.308621, -1.797923, 0.060115, 0.125139, -0.888345, -0.822681
13059.999942779541, 0.940479, -1.141527, -0.042413, 0.07652, -0.920671, -0.796476
13069.999933242798, 1.606176, -0.739429, -0.1745, -0.018977, -0.91136, -0.770753
13079.999923706055, 2.244762, -0.550341, -0.289892, 0.029075, -0.783686, -0.573885
13099.999904632568, 2.785759, -0.458719, -0.355989, 0.029756, -0.797743, -0.549207
13109.999895095825, 3.11333, -0.359324, -0.323503, 0.116501, -0.759548, -0.364699
13119.999885559082, 3.042918, -0.243041, -0.232046, 0.203484, -0.700886, -0.139591
13129.999876022339, 2.373131, -0.192502, -0.105206, 0.266501, -0.587585, 0.120284
13139.999866485596, 1.198064, -0.274065, 0.074213, 0.317339, -0.34707, 0.444929
13149.999856948853, -0.029661, -0.559955, 0.103015, 0.336904, 0.05146, 0.784143
13159.99984741211, -0.960975, -1.227993, 0.053015, 0.311363, 0.550628, 1.067286
13169.999837875366, -1.762429, -1.553648, 0.261571, 0.122217, 1.204742, 1.030404
13179.999828338623, -1.992808, -1.766154, 0.366081, 0.086699, 1.861295, 1.136032
13189.99981880188, -1.711463, -1.579487, 0.428314, 0.304061, 1.783952, 1.218354
13199.999809265137, -1.456867, -1.079424, 0.556005, 0.417332, 0.92931, 0.941009
13209.999799728394, -1.347636, -0.83926, 0.749761, 0.503265, 0.20504, 0.64543
13220.00002861023, -1.487584, -0.715987, 0.842549, 0.466562, -0.238242, 0.368193
13230.000019073486, -1.998449, -0.0865, 0.914079, 0.368751, -0.505618, 0.101056
13240.000009536743, -1.633025, -0.227723, 1.202596, 0.986424, -0.247236, 0.373125
13250.0, -0.530716, -0.559829, 1.482898, 0.971242, -0.240472, 0.367291
13259.999990463257, -1.933589, -1.098714, 1.033898, 1.403018, 1.915589, 0.192435
13269.999980926514, -2.76458, 0.452573, 0.236539, -0.273168, 1.627322, 0.85595
13279.99997138977, -0.99841, 0.377212, -0.121797, -0.269625, 1.636095, 0.841544
13299.999952316284, 1.933147, 1.668669, -0.125806, -0.451732, -0.050669, -0.731757
13309.999942779541, 3.352484, 2.425189, -0.100915, -0.348087, -1.592142, -1.593612
13319.999933242798, 2.476732, 2.169866, -0.218403, 0.288911, -2.430899, -2.543312
13329.999923706055, 2.746354, 3.54202, 0.037053, 0.532561, -1.860856, -0.86355
13339.999914169312, 3.675283, 4.464198, 0.011593, 0.213613, 0.240735, -1.013922
13349.999904632568, 4.087075, 4.809015, -0.546319, 0.016051, 0.565269, -1.689666
13359.999895095825, 3.981651, 3.815265, -1.12099, -0.418637, 1.018196, -1.471292
13369.999885559082, 3.392974, 2.535706, -1.293083, -0.652607, 1.453821, -0.813257
13379.999876022339, 2.797402, 1.795553, -1.058614, -0.551674, 1.415027, -0.296703
13399.999856948853, 2.824035, 1.610952, -0.270183, -0.252239, 0.80123, -0.062005
13389.999866485596, 2.657725, 1.64453, -0.702409, -0.261105, 0.809892, -0.089494
13409.99984741211, 3.055588, 1.628346, 0.176843, 0.038204, 0.076412, -0.091196
13419.999837875366, 3.192604, 1.730107, 0.378241, 0.258825, -0.431018, -0.153211
13429.999828338623, 3.245986, 1.838931, 0.416421, 0.363008, -0.869411, -0.245766
13449.999809265137, 3.048489, 2.411346, 0.148805, 0.219371, -0.372464, -0.157159
13439.99981880188, 3.230421, 2.146614, 0.288357, 0.217833, -0.368054, -0.189208
13459.999799728394, 2.741889, 2.230299, 0.13517, 0.174845, -0.030213, -0.144721
13470.00002861023, 2.422906, 1.749427, 0.177929, 0.045629, 0.189143, -0.175058
13480.000019073486, 2.255289, 1.303414, 0.300778, -0.155434, 0.262286, -0.191111
13490.000009536743, 2.245121, 1.181468, 0.382409, -0.348078, 0.209089, -0.195292
13509.999990463257, 2.210732, 1.077111, 0.414335, -0.28747, 0.065343, -0.06972
13519.999980926514, 2.225458, 1.270986, 0.45788, -0.198355, -0.076573, -0.011146
13529.99997138977, 2.261763, 1.594743, 0.513035, -0.088414, -0.143796, 0.143518
13539.999961853027, 2.235739, 1.831261, 0.603104, -0.001207, -0.237968, 0.218903
13549.999952316284, 2.165616, 1.913071, 0.676751, 0.046503, -0.216352, 0.29989
13559.999942779541, 2.089064, 2.006057, 0.740304, 0.10685, -0.165322, 0.290694
13569.999933242798, 1.948512, 2.050533, 0.791489, 0.105048, -0.10247, 0.270142
13579.999923706055, 1.84562, 1.979114, 0.828002, 0.070793, -0.1062, 0.244847
13589.999914169312, 1.780265, 1.672636, 0.90214, -0.010318, -0.16027, 0.035136
13599.999904632568, 1.739834, 1.256685, 0.924522, 0.032411, -0.180463, -0.134104
13609.999895095825, 1.764282, 1.055952, 0.842411, 0.054867, -0.161776, -0.186663
13619.999885559082, 1.79841, 1.173643, 0.696196, -0.028458, -0.075895, -0.097305
13629.999876022339, 1.778018, 1.454223, 0.552576, -0.124333, 0.042344, 0.066563
13639.999866485596, 1.72927, 1.661422, 0.437993, -0.158184, 0.107469, 0.248396
13649.999856948853, 1.611204, 1.719303, 0.382574, -0.148412, 0.112998, 0.396074
13659.99984741211, 1.441967, 1.713492, 0.364285, -0.148306, 0.058669, 0.466303
13669.999837875366, 1.296124, 1.640687, 0.387938, -0.207521, -0.020134, 0.438186
13679.999828338623, 1.196782, 1.461361, 0.464344, -0.286457, -0.037006, 0.31775
13689.99981880188, 1.079768, 1.291161, 0.618835, -0.331734, 0.005974, 0.202429
13709.999799728394, 0.944937, 1.129867, 0.731218, -0.377099, 0.060655, 0.156666
13720.00002861023, 0.779092, 1.034638, 0.759866, -0.616736, 0.271033, 0.253288
13730.000019073486, 0.664208, 1.012601, 0.651878, -0.62678, 0.274926, 0.25774
13740.000009536743, 0.510594, 1.077268, 0.500168, -0.697967, 0.345413, 0.352869
13750.0, 0.257532, 1.105375, 0.359904, -0.660249, 0.368481, 0.468487
13759.999990463257, -0.34687, 1.009169, 0.192137, -0.340235, 0.382512, 0.595526
13769.999980926514, -1.109919, 0.821416, -0.230251, -0.243091, 0.404785, 0.52675
13779.99997138977, -1.701557, 0.676695, -0.647211, -0.286592, 0.708907, 0.342995
13789.999961853027, -2.447804, 0.45047, -1.041725, -0.191502, 1.219953, 0.195516
13799.999952316284, -3.266978, 0.183228, -1.463581, 0.016821, 1.220536, 0.236454
13809.999942779541, -3.812518, 0.002121, -1.640103, 0.032844, 1.20828, 0.199507
13819.999933242798, -4.323874, 0.131641, -1.527026, 0.383688, 0.770314, 0.205846
13829.999923706055, -4.490186, 0.954819, -1.301712, 0.802776, 0.386483, 0.255548
13839.999914169312, -4.138707, 1.903969, -1.272187, 1.047678, 0.068099, 0.407045
13849.999904632568, -3.671124, 2.155697, -1.312612, 1.17276, 0.127707, 0.061057
13859.999895095825, -3.3368, 2.203392, -1.303685, 1.215801, 0.457699, -0.585611
13869.999885559082, -2.959888, 2.698555, -1.386322, 1.357288, 0.879212, -0.410932
13879.999876022339, -2.567482, 3.126427, -1.689587, 1.375993, 0.879106, -0.442344
13889.999866485596, -2.368096, 2.803927, -2.163261, 1.174406, 1.071004, -0.036865
13899.999856948853, -2.625568, 1.77735, -2.328711, 0.681407, 1.159544, 0.156928
13919.999837875366, -2.94512, 0.678221, -2.149199, -0.00326, 0.745933, -0.027349
13929.999828338623, -3.154168, -0.044548, -1.794156, 0.075735, 0.495565, -0.233376
13939.99981880188, -3.355046, -0.389087, -1.265092, 0.160265, 0.289057, -0.493542
13949.999809265137, -3.475767, -0.221955, -0.642956, 0.190462, 0.021559, -0.695338
13959.999799728394, -3.624642, -0.305527, -0.080752, 0.194286, -0.216858, -0.631094
13970.00002861023, -3.620276, -0.61205, 0.194305, 0.257473, -0.432181, -0.665661
13980.000019073486, -3.486525, -0.856093, 0.338945, 0.25517, -0.510903, -0.682743
13990.000009536743, -3.417106, -0.975303, 0.446208, 0.226864, -0.515733, -0.634341
14000.0, -3.312796, -1.458094, 0.578509, 0.208964, -0.511791, -0.554751
14009.999990463257, -2.932446, -1.753771, 0.570594, 0.196579, -0.540839, -0.697484
14019.999980926514, -2.498361, -1.849729, 0.528196, 0.056541, -0.550193, -0.796936
14029.99997138977, -2.095378, -2.00368, 0.448308, -0.081528, -0.51792, -0.720055
14039.999961853027, -1.6053, -2.009975, 0.37209, -0.162007, -0.496939, -0.669683
14049.999952316284, -1.005324, -1.874725, 0.307334, -0.179041, -0.561567, -0.667801
14059.999942779541, -0.402762, -1.607087, 0.236702, -0.163454, -0.62237, -0.665592
14069.999933242798, 0.149807, -1.258155, 0.168881, -0.151329, -0.646417, -0.640421
14079.999923706055, 0.606085, -0.882279, 0.063648, -0.178812, -0.694814, -0.570425
14089.999914169312, 1.03761, -0.572725, -0.113184, -0.171895, -0.683094, -0.523398
14099.999904632568, 1.510555, -0.375365, -0.301014, -0.150333, -0.669113, -0.465202
14119.999885559082, 2.002209, -0.291652, -0.490336, -0.11099, -0.665226, -0.386026
14129.999876022339, 2.50706, -0.268581, -0.664952, -0.089571, -0.68233, -0.292749
14139.999866485596, 2.921996, -0.209611, -0.761753, -0.080708, -0.692339, -0.179715
14149.999856948853, 3.140336, -0.045257, -0.738073, -0.062528, -0.6539, -0.031
14159.99984741211, 3.099039, 0.215202, -0.56523, -0.03641, -0.627548, 0.143998
14169.999837875366, 2.726558, 0.376265, -0.28143, 0.055841, -0.584168, 0.291176
14179.999828338623, 1.800867, 0.416136, 0.192661, 0.19256, -0.480539, 0.345395
14189.99981880188, 0.247744, 0.126298, 0.601938, 0.283327, -0.28574, 0.444288
14199.999809265137, -1.718909, -0.844164, 0.771443, 0.44045, 0.082581, 0.612766
14209.999799728394, -3.477555, -1.810725, 0.628687, 0.654661, 0.719929, 0.780848
14220.00002861023, -3.83072, -2.724536, 0.513916, 0.837038, 1.695572, 1.05679
14230.000019073486, -3.195903, -2.811629, 0.443605, 0.765919, 2.491298, 1.229129
14240.000009536743, -2.506595, -2.18912, 0.586543, 0.691398, 2.249293, 0.8872
14250.0, -2.120694, -1.091597, 0.935391, 0.717344, -0.087732, 0.472522
14259.999990463257, -1.911169, -0.04702, 1.27768, 0.634621, -0.676392, 0.411532
14269.999980926514, -1.704756, 0.742792, 1.327424, 0.451118, -0.816413, 0.138157
14279.99997138977, -1.287513, 0.98254, 1.351476, 0.233671, -0.729107, -0.081088
14289.999961853027, -0.426916, 0.672903, 1.435356, 0.464637, -0.599342, -0.007498
14299.999952316284, 0.74681, -0.028867, 1.608868, 0.979097, -0.289125, 0.050287
14309.999942779541, 0.631108, -0.758411, 1.808387, 1.202907, 0.282496, 0.075927
14329.999923706055, -0.718775, -0.11333, 1.77801, 1.298027, 0.489394, -0.036732
14339.999914169312, -1.052178, 0.663453, 1.376204, 1.148229, 0.714928, 0.260024
14349.999904632568, 0.202905, 0.507424, 0.834015, 0.740273, 0.800405, 0.182414
14359.999895095825, 2.333314, 1.374625, 0.561915, 0.14292, 0.433672, -0.245925
14369.999885559082, 3.101649, 2.696487, 0.247759, -0.410731, -0.98073, -1.45781
14379.999876022339, 2.975589, 3.483744, 0.070758, -0.394816, -0.995874, -1.440114
14389.999866485596, 3.205471, 4.053506, 0.128234, -0.150148, -0.867405, -1.117194
14399.999856948853, 3.628428, 4.068902, 0.071531, -0.224221, -0.124014, -0.4517
14409.99984741211, 3.810314, 4.273867, -0.491019, 0.125048, 0.166428, -0.853597
14419.999837875366, 4.108368, 3.905616, -1.186937, -0.234385, 0.359322, -0.890283
14429.999828338623, 4.339626, 2.988604, -1.67587, -0.522298, 0.59674, -0.826507
14439.99981880188, 4.122031, 2.466558, -1.664067, -0.566232, 0.807633, -0.619558
14449.999809265137, 3.6092, 2.3645, -1.36804, -0.527931, 0.923468, -0.358215
14459.999799728394, 3.231781, 2.24527, -0.992502, -0.358044, 0.749732, -0.112833
14470.00002861023, 3.158828, 1.987764, -0.573441, -0.218936, 0.343083, -0.016295
14480.000019073486, 3.193221, 1.881255, -0.092829, -0.106783, -0.103549, -0.051211
14490.000009536743, 3.172757, 1.965436, 0.319995, -0.008884, -0.428212, -0.116486
14500.0, 3.15813, 2.083025, 0.588846, 0.073806, -0.641667, -0.095467
14509.999990463257, 3.090577, 2.423131, 0.537977, 0.115909, -0.658679, -0.08397
14529.99997138977, 2.908597, 2.68119, 0.310232, 0.174246, -0.485349, -0.044562
14539.999961853027, 2.575288, 2.24611, 0.33852, 0.238509, -0.207, 0.033815
14549.999952316284, 2.258708, 1.793991, 0.492435, 0.216779, 0.022257, -0.02851
14559.999942779541, 2.232959, 1.152928, 0.529867, 0.084321, 0.061528, -0.123281
14569.999933242798, 2.364334, 0.86947, 0.50834, -0.130631, -0.040949, -0.184647
14579.999923706055, 2.415977, 1.025616, 0.50645, -0.405421, -0.106541, -0.09316
14589.999914169312, 2.440564, 1.381846, 0.515509, -0.307795, -0.134626, 0.270405
14599.999904632568, 2.412009, 1.60674, 0.516206, -0.314855, -0.131462, 0.294118
14609.999895095825, 2.256966, 1.582771, 0.607583, -0.215331, -0.085147, 0.344395
14619.999885559082, 2.185582, 1.530621, 0.727625, -0.135454, -0.06223, 0.30848
14629.999876022339, 2.176157, 1.612352, 0.85366, -0.130746, -0.120769, 0.243095
14639.999866485596, 2.107482, 1.545063, 1.010791, -0.130726, -0.183092, 0.177554
14649.999856948853, 1.989461, 1.34642, 1.16452, -0.088522, -0.253517, 0.058089
14659.99984741211, 1.868075, 1.087952, 1.224774, -0.007674, -0.310254, -0.038421
14669.999837875366, 1.786639, 0.730275, 1.200201, -0.021906, -0.30342, -0.021865
14679.999828338623, 1.717882, 0.493498, 1.073202, 0.006661, -0.128875, 0.072126
14689.99981880188, 1.659356, 0.378252, 0.913637, -0.020946, 0.008367, 0.168646
14699.999809265137, 1.54343, 0.467763, 0.775542, -0.086912, 0.138837, 0.262963
14709.999799728394, 1.363515, 0.651936, 0.658229, -0.165832, 0.229606, 0.420625
14720.00002861023, 1.092719, 0.832828, 0.571546, -0.235338, 0.269127, 0.562553
14740.000009536743, 0.787538, 0.908178, 0.510678, -0.337187, 0.260358, 0.568202
14750.0, 0.512483, 1.004722, 0.451113, -0.34431, 0.286852, 0.502085
14759.999990463257, 0.29013, 1.136447, 0.363507, -0.246361, 0.321414, 0.468245
14769.999980926514, 0.170733, 1.342668, 0.31415, -0.165301, 0.36221, 0.432807
14779.99997138977, 0.068289, 1.489653, 0.262358, -0.053433, 0.3953, 0.385317
14789.999961853027, -0.062855, 1.331374, 0.313421, 0.083459, 0.355738, 0.339582
14799.999952316284, -0.227323, 1.087504, 0.37158, 0.115209, 0.298057, 0.298825
14809.999942779541, -0.339594, 0.928661, 0.356697, -0.188343, 0.207667, 0.36229
14819.999933242798, -0.440389, 0.890317, 0.285981, -0.368258, 0.293475, 0.457539
14829.999923706055, -0.659375, 0.793018, 0.229272, -0.515575, 0.388775, 0.528425
14839.999914169312, -1.122247, 0.569151, 0.195707, -0.635971, 0.44981, 0.540569
14849.999904632568, -1.735359, 0.052764, 0.13425, -0.785078, 0.580628, 0.433045
14859.999895095825, -2.151868, -0.562065, 0.008612, -0.983908, 1.043776, 0.196644
14869.999885559082, -2.577743, -1.258591, -0.114556, -1.112748, 1.352038, -0.032191
14879.999876022339, -3.317047, -2.065341, -0.149631, -1.1251, 1.146332, -0.127715
14889.999866485596, -4.224325, -2.557637, 0.093325, -0.897287, 0.850902, -0.081043
14899.999856948853, -5.024969, -3.092334, 0.453823, -0.47135, 0.626998, -0.020737
14909.99984741211, -5.259486, -2.978849, 0.612866, -0.227368, 0.341305, -0.104439
14919.999837875366, -5.000026, -1.809004, 0.363838, -0.095571, 0.117744, -0.094285
14939.99981880188, -4.536754, -0.71071, -0.052744, 0.175691, 0.225421, -0.064087
14949.999809265137, -3.978124, -0.784013, -0.345149, 0.384575, 0.419798, -0.16697
14959.999799728394, -3.52346, -0.525833, -0.572291, 0.28207, 0.511768, -0.328557
14970.00002861023, -3.330566, -0.236978, -0.811087, 0.114772, 0.487962, -0.334528
14980.000019073486, -3.257286, -0.269254, -1.036379, -0.40521, 0.71686, -0.533103
14990.000009536743, -3.140836, -1.171541, -1.301551, -0.584335, 0.911448, -0.605911
15000.0, -3.080255, -2.185255, -1.591404, -0.743868, 1.043931, -0.666838
15009.999990463257, -3.147993, -3.256653, -1.878457, -0.727187, 0.994762, -0.827017
15019.999980926514, -3.443994, -4.056919, -1.925638, -0.686756, 0.728687, -1.050374
15029.99997138977, -3.631213, -4.300829, -1.878844, -0.587945, 0.450544, -1.122009
15039.999961853027, -3.637943, -3.972099, -1.857509, -0.526437, 0.288065, -1.057299
15049.999952316284, -3.516846, -3.677994, -1.891387, -0.417387, 0.204534, -0.879619
15059.999942779541, -3.206901, -3.73863, -1.958249, -0.314481, 0.163843, -0.745773
15069.999933242798, -2.76295, -4.102009, -2.103919, -0.15915, 0.125213, -0.730057
15079.999923706055, -2.20312, -4.580197, -2.336735, -0.069793, 0.058318, -0.755371
15089.999914169312, -1.691907, -5.003441, -2.666843, -0.058576, -0.019646, -0.739982
15099.999904632568, -1.436466, -5.473126, -2.806081, -0.065661, -0.091871, -0.640438
15109.999895095825, -1.374342, -5.902847, -2.691229, -0.065903, -0.139666, -0.625635
15119.999885559082, -1.361745, -5.860638, -2.409675, -0.055781, -0.164883, -0.694224
15129.999876022339, -1.373903, -5.438699, -2.008564, -0.022827, -0.208613, -0.707004
15149.999856948853, -1.301303, -4.745726, -1.571558, 0.052251, -0.334724, -0.685476
15159.99984741211, -1.111762, -4.004365, -1.215854, 0.024302, -0.384635, -0.64821
15169.999837875366, -0.898509, -3.391443, -1.009719, 0.035939, -0.396173, -0.620292
15179.999828338623, -0.739129, -2.984331, -0.925985, 0.103038, -0.357388, -0.630235
15189.99981880188, -0.65322, -2.699757, -0.881717, 0.221308, -0.315226, -0.622906
15199.999809265137, -0.61213, -2.491871, -0.867463, 0.338931, -0.291513, -0.611513
15209.999799728394, -0.56397, -2.366843, -0.848029, 0.459805, -0.290613, -0.604967
15220.00002861023, -0.490409, -2.255374, -0.815734, 0.556839, -0.316171, -0.594182
15230.000019073486, -0.37358, -2.024601, -0.675675, 0.588552, -0.387248, -0.577553
15240.000009536743, -0.211994, -1.706259, -0.476351, 0.588407, -0.47773, -0.539359
15250.0, -0.033595, -1.150437, -0.269755, 0.485879, -0.543862, -0.469339
15259.999990463257, 0.127255, -0.615382, -0.105988, 0.446825, -0.497966, -0.397878
15269.999980926514, 0.154678, -0.15282, -0.092551, 0.314762, -0.484633, -0.302725
15279.99997138977, 0.044917, 0.110052, -0.107158, 0.229263, -0.410157, -0.195698
15289.999961853027, -0.270797, 0.231196, -0.179989, 0.183424, -0.324832, -0.079905
15299.999952316284, -0.635333, 0.159365, -0.28093, -0.021477, -0.13197, 0.315851
15309.999942779541, -0.871009, -0.191344, -0.361811, -0.127283, -0.002579, 0.508006
15319.999933242798, -0.822557, -0.525898, -0.395937, -0.27432, 0.071111, 0.653959
15329.999923706055, -0.595948, -0.590726, -0.465158, -0.477701, 0.149448, 0.784799
15349.999904632568, -0.353463, -0.470246, -0.646433, -0.685959, 0.195667, 0.753634
15359.999895095825, -0.260126, -0.195117, -0.795678, -0.833737, 0.262805, 0.543185
15369.999885559082, -0.353896, 0.098583, -0.934446, -0.851791, 0.183208, 0.332609
15379.999876022339, -0.632438, 0.167532, -0.95067, -0.756736, 0.107709, 0.257045
15389.999866485596, -0.915382, -0.108987, -0.918199, -0.524767, 0.002557, 0.346189
15399.999856948853, -0.970763, -0.682428, -0.855354, -0.284476, -0.137253, 0.416703
15409.99984741211, -0.734581, -1.225939, -0.760598, -0.06082, -0.252923, 0.388473
15419.999837875366, -0.317859, -1.476646, -0.64978, 0.105291, -0.398092, 0.316897
15429.999828338623, 0.118907, -1.422194, -0.489861, 0.16946, -0.583869, 0.206051
15439.99981880188, -0.03899, -0.854752, -0.434264, 0.166323, -0.758449, 0.079896
15449.999809265137, -0.678549, 1.207854, 0.003681, 0.298813, -0.79192, 0.028462
15459.999799728394, 0.578545, 1.915707, 1.278033, 0.999328, -0.297315, 0.595542
15470.00002861023, -1.293941, 2.317976, 0.780611, 2.525708, 3.104525, -1.466176
15480.000019073486, -4.476249, 2.716836, 0.337924, 1.601773, 4.473218, 0.343603
15490.000009536743, -5.049375, 0.760464, 0.657023, 0.784664, 3.387909, 0.644078
15500.0, -2.433894, -1.670281, 0.848648, 0.852031, 1.364041, -0.413728
15509.999990463257, 0.799053, 0.503168, 0.737213, -0.333774, -1.00664, -1.937727
15519.999980926514, 2.472507, 3.534322, 0.164432, -0.378434, -2.404307, -2.803425
15529.99997138977, 2.07523, 4.613535, -0.65549, 0.325687, -2.585526, -1.884448
15539.999961853027, 2.332363, 5.313909, -1.10635, 0.22593, -1.510288, -0.070257
15559.999942779541, 3.389146, 5.605005, -1.433283, 0.008532, -0.190956, 0.074246
15569.999933242798, 3.612712, 5.145204, -1.739945, -0.133501, 0.684188, -1.098397
15579.999923706055, 3.104537, 3.361676, -1.778497, -0.321788, 1.345557, -1.328567
15589.999914169312, 2.311776, 1.675561, -1.402128, -0.517702, 2.01218, -0.9616
15599.999904632568, 2.042363, 1.19996, -1.070526, -0.455284, 2.016715, -0.293188
15609.999895095825, 2.292386, 1.408059, -0.641171, -0.126759, 1.144734, -0.099097
15619.999885559082, 2.59496, 1.802546, -0.279205, 0.259917, 0.142556, -0.284627
15629.999876022339, 2.810207, 2.179005, -0.186789, 0.625769, -0.703198, -0.269098
15639.999866485596, 2.913047, 2.687495, -0.139924, 0.495586, -0.66118, -0.175886
15649.999856948853, 2.949892, 3.392096, 0.067022, 0.350002, -0.574098, -0.069449
15659.99984741211, 2.874746, 4.177127, 0.188822, 0.210522, -0.562572, -0.075536
15669.999837875366, 2.712996, 4.498041, 0.438625, 0.059318, -0.32125, -0.198976
15679.999828338623, 2.702322, 4.830085, 0.358052, 0.123057, 0.015188, -0.040384
15689.99981880188, 2.628023, 4.783935, 0.205678, -0.009732, 0.284352, -0.062913
15699.999809265137, 2.524605, 4.316455, -0.011138, -0.041615, 0.365433, -0.055951
15709.999799728394, 2.327206, 3.758536, -0.275616, -0.179587, 0.386972, -0.155253
15720.00002861023, 1.963803, 3.416198, -0.413673, -0.298401, 0.254421, -0.255725
